Timestamp,Ax,Ay,Az,Gx,Gy,Gz
1861,-21268,528,5332,138,8378,-3392
1883,-9692,5360,5932,1051,3631,1407
1905,-8652,2820,5424,-3632,-2896,975
1927,-8380,1196,3524,-4433,-8386,1368
1949,-8800,2076,2696,-5066,-13338,2250
1971,-10728,2000,2344,-5165,-18558,2362
1993,-12768,364,656,-6445,-22792,2706
2015,-15788,868,-40,-8376,-25990,2976
2037,-18552,1336,-1964,-7838,-28564,2865
2059,-20000,2352,-3880,-6665,-30036,3496
2081,-22336,2200,-4820,-8383,-30775,2976
2103,-24016,1880,-4680,-8292,-31028,3029
2125,-24828,2136,-4528,-7838,-30868,1690
2147,-25016,1672,-4828,-7047,-29722,834
2169,-25816,2220,-5752,-2444,-28084,1000
2191,-24740,1972,-8476,-449,-24880,816
2213,-23484,944,-10788,1284,-22237,932
2235,-22128,-1720,-18704,4029,-19052,3253
2257,-17540,80,-17928,2229,-15803,2957
2279,-13588,-2056,-15120,2949,-9753,803
2301,-13568,-1924,-15452,4469,-2162,-706
2323,-15448,-1624,-13424,4911,4767,-392
2345,-17716,720,-12760,8092,9351,621
2367,-23172,-392,9164,4440,5689,-1715
2389,-12644,-3712,18404,-1196,8464,-1041
2411,-18184,-3032,-5328,2166,12012,-1263
2433,-18996,728,-1684,3485,11273,1232
2455,-22584,8952,-5840,-1709,10683,2593
2477,-20112,1724,3256,-6766,8914,615
2499,-13784,1244,864,-3125,9976,489
2521,-17268,664,-124,-290,8952,751
2543,-16880,1132,-16,2347,8262,1740
2565,-16884,2404,-68,1269,7418,2479
2587,-16080,3812,-100,-2329,5996,629
2609,-15884,3272,-824,-4007,5969,81
2631,-16236,2996,-1224,-5951,6231,-37
2653,-16392,2672,-692,-6729,6328,-419
2675,-16244,2004,-452,-5155,6001,-630
2697,-15940,2544,-180,-2364,6248,-306
2719,-15940,3072,-1020,-298,6782,54
2741,-16168,3060,-1756,175,7323,-98
2763,-16200,2992,-1928,353,7718,-232
2785,-16684,2752,-2484,187,7920,-435
2807,-16852,2120,-3004,-14,7686,-881
2829,-16788,3760,-3120,583,7599,-988
2851,-17504,2984,-3368,918,7529,-1285
2873,-17912,3096,-3452,2002,7407,-730
2895,-18672,1748,-2548,2467,7439,-982
2917,-18044,432,-3432,2074,8496,-620
2939,-17572,1136,-3824,1499,9617,-504
2961,-17176,2368,-4248,-47,11017,-1216
2983,-17852,4008,-4064,-373,12298,-1296
3005,-18548,4188,-4596,630,13106,-1445
3027,-18684,3596,-4900,3221,12824,-1266
3049,-19656,1924,-4032,5284,13384,-965
3071,-21404,3100,-2524,6671,13617,-1841
3093,-22836,1088,8,10240,14387,-808
3115,-25956,1532,1656,15175,15792,-1290
3137,-23984,4728,-2408,20512,20444,-256
3159,-26220,2948,-7588,14198,21014,-1926
3181,-26656,8620,1280,1649,10801,1023
3203,-19480,7260,-5040,13410,15215,-2415
3225,-8244,3252,-12888,5840,21697,-9221
3247,-16056,1628,2188,-2640,1741,3733
3269,-5412,6376,6784,-991,-3513,2987
3291,-4316,1268,4808,-1245,-9536,2208
3313,-6196,1488,-1448,-2371,-14019,3649
3335,-7952,3072,760,-8894,-19623,4809
3357,-10568,1692,-96,-11547,-24468,4023
3379,-13056,1112,-1340,-14164,-28751,3377
3401,-16240,1044,-2576,-14663,-32336,2187
3423,-19816,564,-3516,-13642,-32768,1324
3445,-22528,180,-4844,-8836,-32768,111
3467,-24496,1020,-6904,-5116,-32768,859
3489,-28152,4308,-9928,-5841,-32768,1389
3511,-29024,4908,-8944,-8288,-32768,1216
3533,-27532,4652,-10540,-6055,-32768,972
3555,-27856,3648,-11792,-1100,-32189,1877
3577,-25924,1016,-13496,1273,-28537,2040
3599,-22660,-480,-19108,2867,-23876,3527
3621,-17212,1968,-21336,1244,-17073,4573
3643,-12428,-308,-21108,2743,-9257,2345
3665,-12308,-3104,-20172,3507,1263,1038
3687,-14896,-2048,-17484,3443,8719,-287
3709,-17092,456,-13976,-23,13933,-682
3731,-23692,1032,2740,-1678,13865,-970
3753,-26696,-2220,32767,-12487,-2114,-1990
3775,-12548,-6692,-13712,7371,13487,-2342
3797,-29612,1172,1468,7135,9523,2588
3819,-19212,22620,-14884,2845,16049,6710
3841,-23136,4240,692,-4195,8917,-1096
3863,-15796,164,-200,-4745,10731,-974
3885,-16468,1560,-300,-749,9957,123
3907,-17376,2296,-624,728,7890,364
3929,-17232,2116,-260,1486,6261,1094
3951,-16456,3332,24,367,4879,165
3973,-14976,4324,8,-423,4540,-530
3995,-15952,3188,-608,-833,4735,-683
4017,-15692,3348,-708,-5412,5460,-727
4039,-15356,3220,-808,-9271,6858,-843
4061,-15968,2744,-300,-8372,8103,-1105
4083,-16440,2348,-612,-5781,8563,-1045
4105,-16104,2980,-1256,-2470,9183,-164
4127,-16056,3328,-2000,-688,9761,-4
4149,-16428,3276,-2336,341,9815,-182
4171,-16828,2956,-2904,-4,9649,-571
4193,-16796,2656,-3196,69,9649,-1014
4215,-18340,2432,-3916,699,9147,-1189
4237,-18892,2260,-4060,2047,8517,-952
4259,-18636,1176,-3704,2059,8451,-681
4281,-19100,1472,-3812,1161,9804,-651
4303,-18248,2444,-4052,-565,11433,-1050
4325,-18396,3768,-4000,-375,12730,-1417
4347,-19220,4556,-3856,974,14343,-1673
4369,-19912,4456,-3340,3584,15074,-1540
4391,-21492,2876,-2428,5855,16033,-1260
4413,-24552,4008,392,8221,16188,-1688
4435,-26028,704,4012,12468,16028,-1193
4457,-24616,252,3904,17603,16279,-2498
4479,-27116,6068,-8504,18406,24710,-1184
4501,-25420,5524,5288,8204,20256,-4462
4523,-18828,9168,-1876,8597,10815,-4909
4545,-13092,4996,-20144,8436,22071,-5525
4567,-30296,7656,-5296,-6947,2899,-557
4589,-9544,9984,11928,-7715,-7124,2217
4611,-4568,3316,10072,-13910,-12370,-2454
4633,-6356,1908,3620,-7345,-18039,-914
4655,-10092,3408,2260,-7755,-24768,1186
4677,-12836,4564,1792,-8645,-30698,2152
4699,-16516,5076,520,-9616,-32768,2665
4721,-21552,3616,-1668,-12252,-32768,2585
4743,-26504,2844,-3112,-13287,-32768,1960
4765,-28776,1776,-5212,-9029,-32768,1947
4787,-31608,2376,-11320,-3428,-32768,2565
4809,-32768,2744,-13748,-4765,-32768,2878
4831,-32368,4152,-17876,-4764,-32768,2966
4853,-28740,3480,-19800,-6826,-32768,546
4875,-23640,1728,-19456,-4164,-29139,736
4897,-20656,-1508,-20492,1368,-24825,1191
4919,-15612,-2552,-24664,8988,-17260,3366
4941,-10572,-1204,-24304,9183,-8751,2619
4963,-11388,648,-21764,7669,674,323
4985,-14072,-1488,-15908,5390,7845,-745
5007,-17136,-936,-10116,3396,11971,851
5029,-18624,2332,-4972,-1401,12832,1423
5051,-19288,1144,-5136,-4233,11727,837
5073,-25252,6268,30536,-7253,1304,-224
5095,-10216,-1088,20752,-691,6823,-1034
5117,-28260,-11272,-13428,7273,7602,584
5139,-13044,4784,5284,5035,10808,991
5161,-18144,1736,2524,3257,12784,367
5183,-19468,7576,-5264,-2539,14014,3125
5205,-16060,840,-232,-668,11542,-2049
5227,-18024,1980,-508,3301,9549,-130
5249,-16808,3336,564,2817,7206,-944
5271,-16912,2388,1088,1801,6736,-24
5293,-15036,4492,1096,2641,6941,921
5315,-15232,5380,816,381,6669,-429
5337,-15008,3804,44,-1401,6662,-1285
5359,-15668,2996,-288,-2301,7353,-588
5381,-15836,3020,-640,-2981,8317,-33
5403,-16032,3588,-636,-2484,9179,-118
5425,-15668,3404,-688,-2691,10202,-469
5447,-16012,4052,-1536,-2867,10971,-796
5469,-16128,4184,-1924,-3182,11440,-1001
5491,-16340,4324,-2580,-2658,11168,-1014
5513,-16764,3772,-3256,-2622,10802,-1096
5535,-18140,2608,-3720,-1280,9860,-1607
5557,-18612,2240,-3892,486,8494,-1154
5579,-18820,1276,-3704,1883,8180,-829
5601,-18152,2444,-3704,1758,8889,-512
5623,-18632,3424,-3440,1021,10479,-1018
5645,-18284,2960,-3644,858,12114,-1434
5667,-18544,3576,-3780,1145,13436,-1789
5689,-19840,3776,-3800,1712,14285,-1841
5711,-22928,3284,-2496,2517,14756,-2210
5733,-21200,4440,-1360,7022,13911,-2262
5755,-23580,2780,2384,9470,14886,-2155
5777,-24820,-316,3812,13665,15532,-1740
5799,-22752,6136,-3292,19778,20164,443
5821,-29124,6308,-820,12451,23141,-772
5843,-25356,8948,11344,-408,11662,-4117
5865,-12228,10536,-2420,20236,15927,-5295
5887,-9444,7672,-14588,8627,20410,-7183
5909,-23136,2956,4804,-7842,4340,5274
5931,-6476,11128,11760,-3587,-5825,5661
5953,-6108,2180,9336,-7814,-11559,-88
5975,-6156,1072,2160,-4015,-17871,1107
5997,-9556,3764,332,-6488,-23458,4186
6019,-11352,5892,1724,-11544,-29627,3454
6041,-14616,3444,-196,-14561,-32768,3062
6063,-17824,2744,-1688,-18649,-32768,1637
6085,-22048,484,-3192,-15595,-32768,483
6107,-26312,388,-4644,-6716,-32768,1096
6129,-30016,2928,-8152,-4447,-32768,2377
6151,-32768,3316,-14404,-6184,-32768,2162
6173,-32768,1928,-18564,-8759,-32768,-112
6195,-32768,136,-22152,-3695,-32768,-1178
6217,-24536,2624,-25876,-1690,-29121,-1976
6239,-16532,3244,-31224,5448,-22142,-2284
6261,-11276,-4776,-30384,15069,-10521,1838
6283,-10868,-1952,-25440,11335,2766,2346
6305,-16168,2068,-21028,3378,11053,-2915
6327,-19240,44,-14848,299,16097,-3179
6349,-31264,10168,32767,3408,6235,-1601
6371,-12504,-2844,9596,-8168,12621,-262
6393,-26840,-10648,-28000,1449,20592,-2060
6415,-18592,9404,1468,2548,12730,1539
6437,-21060,11660,-7988,-199,14400,588
6459,-19424,-1272,72,-5525,12244,-342
6481,-12524,6320,-1204,-3333,11609,884
6503,-18188,2548,-1140,-2805,9706,-2065
6525,-16760,3332,-356,12,7647,-1798
6547,-16764,2176,-208,-594,6963,-958
6569,-16364,2944,660,-1504,6999,-1114
6591,-15308,2308,252,-2936,7457,-1455
6613,-16036,2660,-248,-4233,7285,-1871
6635,-15912,2832,-404,-5692,7438,-1565
6657,-15964,1936,-2228,-6792,7941,-1915
6679,-16208,1924,-2164,-8690,8559,-1846
6701,-16648,1308,-2060,-6914,8843,-1786
6723,-16948,1856,-2120,-3124,8407,-1298
6745,-16648,1804,-2948,-114,8130,-1257
6767,-16900,2100,-2536,2029,8052,-838
6789,-16944,2100,-2664,2942,8227,-1115
6811,-17568,1928,-3192,3164,8500,-1517
6833,-17680,2668,-2712,2581,9003,-1915
6855,-19508,2912,-2804,3131,10449,-1724
6877,-20072,1044,-3576,3345,12406,-3001
6899,-20460,580,-3572,2840,14524,-3123
6921,-21484,1956,-3512,2885,15700,-3186
6943,-21744,1244,-3452,4178,15361,-3413
6965,-25712,580,-1004,5351,15781,-2981
6987,-20664,4180,1048,9962,14921,-3301
7009,-25004,2676,4948,14203,15791,-3565
7031,-22740,4380,2756,20277,16024,-5383
7053,-30748,160,-3732,15310,14936,-6544
7075,-20672,6844,-5392,11421,15682,-3357
7097,-14828,11392,-5520,14509,20435,-2478
7119,-32192,3452,1804,-5246,15500,-1450
7141,-8976,10008,13320,-14072,3966,6250
7163,-7456,3372,9236,-16830,-2814,4707
7185,-6756,4340,3684,-11826,-10071,5025
7207,-7480,3088,2344,-12372,-18244,4215
7229,-10048,1284,2824,-12954,-25131,4260
7251,-12788,500,20,-11175,-30321,4189
7273,-17364,-1012,-1596,-10428,-32768,4186
7295,-19724,-1836,-4524,-9786,-32768,3919
7317,-24892,-32,-5752,-6735,-32768,3790
7339,-26692,-588,-7032,-8237,-32768,3119
7361,-29292,1416,-8856,-9687,-32768,2957
7383,-30976,1372,-9412,-10590,-32768,1536
7405,-29744,388,-8748,-7389,-32768,697
7427,-29848,-1140,-11356,-1760,-32768,475
7449,-24740,-2632,-15888,2224,-29574,-604
7471,-19632,1372,-21512,5227,-21595,1230
7493,-14264,-320,-25540,8673,-15844,902
7515,-10776,-4420,-23456,10311,-5773,1960
7537,-13604,-3668,-21960,9383,4761,-397
7559,-15892,-952,-18860,1959,11557,-2410
7581,-17584,-1688,-16028,-235,16905,-2285
7603,-32648,-2076,24884,3475,7547,-329
7625,-10924,2632,20068,6113,10087,-1777
7647,-32672,-5700,-21396,9450,15234,3303
7669,-16568,8004,-7864,8528,15794,2626
7691,-22272,17412,-7872,2281,13971,3800
7713,-20164,748,1332,643,10508,-2219
7735,-14920,3160,-492,2085,10141,646
7757,-16684,4056,-616,1934,7988,422
7779,-16768,3496,-296,4415,5632,-731
7801,-16072,3960,992,5927,4359,-27
7823,-15308,4160,648,4955,3661,-882
7845,-15848,3260,-28,5663,3940,-507
7867,-15640,4376,-300,4532,4336,-537
7889,-16056,3396,-308,3557,4073,-1193
7911,-15716,3920,-348,3911,4639,-898
7933,-15692,4232,-864,4071,5264,-340
7955,-16308,3944,-832,4692,5117,-1255
7977,-15896,3764,-1580,2823,5469,-1586
7999,-15920,3524,-1648,1620,6177,-1842
8021,-16112,3132,-2004,849,6843,-2179
8043,-16552,3560,-2376,595,7389,-2295
8065,-17216,2432,-2764,709,7475,-2389
8087,-17928,2972,-2504,695,8106,-2388
8109,-17732,2476,-2868,-2043,9731,-2760
8131,-17836,3244,-3108,-5146,12334,-2974
8153,-17916,5564,-3772,-8954,15963,-3846
8175,-18988,2504,-3568,-12898,19102,-6554
8197,-21304,3368,-3472,-10327,19957,-7011
8219,-22576,3168,-3008,-5777,17915,-6193
8241,-22924,1548,-712,-164,16160,-5196
8263,-22248,5128,328,3829,14890,-5184
8285,-22880,3336,4496,5869,17464,-4884
8307,-24992,3864,1660,9093,19242,-4911
8329,-25412,13340,-5196,9369,22654,-2539
8351,-25896,1940,-728,5307,14419,-5630
8373,-23352,12344,-5412,17249,17897,-5256
8395,-18908,6128,-15360,-224,20383,-10995
8417,-25088,-2356,-700,-15065,12416,-5384
8439,-8588,9224,20244,-9454,-2127,4654
8461,-5192,4204,7304,-1343,-8107,-1577
8483,-6472,2864,2020,-4746,-15550,795
8505,-9580,4288,3276,-5290,-22891,3538
8527,-11232,4676,1072,-6696,-28362,4447
8549,-13724,5336,-380,-11345,-32768,4547
8571,-16932,2968,-1732,-11482,-32768,3584
8593,-21964,2476,-4168,-9511,-32768,4106
8615,-24472,3280,-5120,-9205,-32768,4644
8637,-28336,5924,-8536,-8522,-32768,4780
8659,-31664,6300,-9724,-9472,-32768,3844
8681,-31968,5196,-11116,-6344,-32768,2443
8703,-31140,4916,-13608,-74,-32768,3744
8725,-30144,3472,-13888,2117,-32768,5323
8747,-25816,-1804,-18564,6759,-31505,5560
8769,-19596,-3668,-28928,12663,-21119,8336
8791,-10492,-2276,-32392,7338,-6818,7609
8813,-10384,-328,-24640,3522,5091,1295
8835,-15492,-1456,-21332,-126,14341,-2625
8857,-20136,-976,-14764,-2740,18495,-1372
8879,-27796,4052,32767,-15428,56,-3247
8901,-10344,-20740,-26668,-8276,24562,-9605
8923,-32768,-3060,3288,12024,14480,-536
8945,-23608,29184,-21612,-2168,23573,7947
8967,-18396,-5124,1196,-5716,12721,-4798
8989,-15136,2632,-388,-3656,12383,227
9011,-15892,5532,-1128,1922,9660,-1290
9033,-17484,1780,-1020,2161,7371,-1234
9055,-16592,2144,-180,3378,5696,277
9077,-16680,3944,-24,4213,5138,884
9099,-14976,4748,-680,1938,4744,-390
9121,-14852,4400,-1724,-678,5823,-1078
9143,-15572,3216,-1244,-4335,7228,-1479
9165,-15664,3848,-1172,-4167,8893,-1900
9187,-16736,3024,-1704,-5398,9116,-2125
9209,-16776,3188,-1348,-4039,8871,-1882
9231,-16328,5120,-1652,-2446,8496,-1884
9253,-16124,3648,-2256,-2117,8918,-2063
9275,-17072,3392,-2552,-643,9498,-1877
9297,-17868,3984,-2616,1280,9462,-1531
9319,-18512,1708,-3376,2549,9715,-1529
9341,-18580,748,-3316,1627,10762,-2079
9363,-19576,1912,-3532,1391,12874,-1503
9385,-19984,2036,-3884,773,14361,-2110
9407,-20256,1668,-3504,27,15483,-2363
9429,-20916,2552,-3804,434,16210,-3120
9451,-20836,3632,-3068,1740,16324,-2776
9473,-24344,3952,-504,3150,16469,-3455
9495,-23472,3256,2532,9818,15490,-2700
9517,-27044,404,4544,18675,16484,-2664
9539,-22608,7340,-7116,24068,22737,-1275
9561,-28780,7332,2040,12782,18951,-1533
9583,-21216,9428,-1260,9968,10484,-4353
9605,-14916,5528,-14068,13007,22353,-10664
9627,-29692,5524,-9316,2565,13309,-4881
9649,-12616,5132,10940,-6232,-2118,4542
9671,-3548,6860,8068,-5611,-5573,1883
9693,-4480,724,1216,-5323,-10631,1481
9715,-6928,3076,476,-7213,-16400,4818
9737,-7880,3700,256,-9206,-22020,5795
9759,-10532,4096,548,-13717,-27183,5781
9781,-14060,2044,-1936,-15950,-32295,3933
9803,-16900,676,-1848,-13224,-32768,4016
9825,-20332,1060,-2728,-8563,-32768,4080
9847,-22920,2476,-4908,-7020,-32768,3618
9869,-27596,2636,-5300,-9265,-32768,3224
9891,-32320,3484,-8364,-8466,-32768,2911
9913,-32768,4740,-11160,-6562,-32768,3345
9935,-32268,4672,-14372,-4960,-32768,3160
9957,-29388,3472,-16712,-1391,-32768,2527
9979,-23940,-2548,-22196,5201,-28097,3250
10001,-16036,-3176,-32712,11903,-15682,6297
10023,-11468,2048,-30616,7739,-2563,4613
10045,-12516,-2892,-24940,4274,9329,-2757
10067,-19568,2724,-10872,1520,15060,-3911
10089,-22236,1280,32767,-12516,3984,-3851
10111,-19768,-14600,-18712,-10095,23289,-6286
10133,-31744,-7604,-480,7034,16945,-1792
10155,-18396,26916,-15064,1376,21540,8316
10177,-21008,-616,896,-6347,12133,-2753
10199,-15112,4036,-352,-4982,12638,-1150
10221,-17428,840,-1064,461,10065,-2478
10243,-16904,1668,-888,4709,7675,-1267
10265,-17516,608,-4,4764,5883,506
10287,-16708,3372,-464,4903,5774,1756
10309,-14868,4380,-360,-2367,5378,-699
10331,-14724,4260,-1676,-7789,6203,-2082
10353,-15692,3316,-624,-11045,7239,-2102
10375,-16316,2276,-492,-8872,7835,-2230
10397,-17200,2764,-1244,-4669,6362,-1690
10419,-16332,2988,-1424,-2487,5854,-1851
10441,-15668,2968,-1244,-1015,7203,-1986
10463,-15852,2716,-1276,-175,9124,-1612
10485,-16884,1192,-1972,-385,10611,-1711
10507,-17748,2064,-3120,468,11248,-1710
10529,-18352,2360,-3308,1356,11591,-2281
10551,-19052,1548,-2976,2142,11912,-2689
10573,-20800,2224,-2652,2189,12924,-2586
10595,-22236,2768,-4624,2124,13439,-3696
10617,-20456,1136,-4148,1521,13975,-3291
10639,-19948,2788,-3340,2574,15275,-3448
10661,-22196,3312,-1984,3099,16813,-3977
10683,-24588,5940,404,5676,17199,-4232
10705,-26768,3688,4404,11657,16632,-3332
10727,-25056,1332,5336,19900,13390,-3675
10749,-24484,1080,-6044,24255,11013,-4706
10771,-23720,8016,-6064,15501,18362,502
10793,-18868,10300,-5672,15114,22020,-3324
10815,-18476,6528,-4480,5254,15900,-11604
10837,-13612,4144,12412,-3193,5419,4696
10859,-5928,6564,7748,-3516,1267,3692
10881,-7052,3184,2476,-4813,-4857,6601
10903,-8204,3424,1836,-9722,-10705,7773
10925,-8868,4100,3344,-12919,-16703,8100
10947,-11280,-80,452,-11073,-22237,6786
10969,-13892,-628,188,-11110,-26779,7373
10991,-17292,184,172,-10202,-30440,6849
11013,-20348,-944,-1764,-7778,-32768,5479
11035,-22884,-348,-2832,-5442,-32768,5834
11057,-25468,1084,-2612,-7091,-32768,5102
11079,-29432,1520,-3088,-8548,-32768,3990
11101,-31800,2480,-4456,-6679,-32768,3954
11123,-32768,3016,-5580,-2754,-32768,4172
11145,-32768,1292,-8720,1531,-32768,4787
11167,-30012,-1840,-11736,2014,-32768,3970
11189,-23272,-2256,-18680,5796,-29297,5682
11211,-15076,-2624,-32188,5198,-19016,3972
11233,-7288,-1980,-29668,6135,-3511,5727
11255,-10464,-4820,-24612,2561,10002,-1139
11277,-16792,-1004,-17824,-7102,16534,-3580
11299,-19692,-744,-13272,-7130,19557,-2530
11321,-23936,3256,32767,-9050,571,-3285
11343,-11392,-14112,-32768,-2368,28788,-7408
11365,-32768,-824,100,9274,16318,-1183
11387,-22712,20384,-15424,320,20441,5336
11409,-22664,-5368,-392,-3228,12483,-2316
11431,-16264,4876,-1044,-1328,10967,2732
11453,-14808,4692,-436,-190,7795,-977
11475,-17284,2636,164,3160,5322,-1613
11497,-16388,3368,444,3433,4504,519
11519,-15512,3632,940,3110,4653,313
11541,-14764,4092,160,982,5601,-200
11563,-14748,5224,-472,-3953,6570,-947
11585,-15396,4112,-472,-6779,7642,-1746
11607,-15584,3724,-784,-6030,9164,-1951
11629,-16304,2048,-384,-5060,10334,-1937
11651,-16500,3584,-1240,-2467,10926,-1523
11673,-16960,2624,-1256,-1529,10927,-1672
11695,-16952,3220,-2316,-811,10788,-1656
11717,-17644,2600,-3312,-312,10152,-1330
11739,-18632,2840,-3296,266,9148,-1781
11761,-19228,3912,-3420,2031,8437,-1479
11783,-17908,2796,-3272,3310,8581,-1867
11805,-18096,1504,-3004,3693,10338,-2108
11827,-18588,2660,-2432,3096,12621,-2651
11849,-19924,1032,-3328,1542,14844,-3113
11871,-20544,2028,-3432,1970,15940,-2622
11893,-21176,2432,-2944,2720,16754,-3123
11915,-25484,3512,488,4230,17244,-3319
11937,-24388,3540,3292,10562,16987,-2847
11959,-26912,2296,5792,17233,16845,-3216
11981,-23496,4272,-3752,23958,21907,-2639
12003,-31588,3456,-1244,7655,19667,-2756
12025,-22352,7916,-6948,11761,17263,-3809
12047,-13256,9656,-10216,13331,23169,-8690
12069,-32768,-640,-12940,-9719,14582,-3296
12091,-7140,7592,18180,-7882,-1399,7291
12113,-4644,4916,8888,-7081,-4906,2639
12135,-5696,2820,1916,-5876,-11860,4303
12157,-8568,1420,1852,-7107,-19133,4672
12179,-10100,2472,1776,-7169,-25149,6209
12201,-13008,2268,-284,-9080,-30496,5875
12223,-16840,2272,-1572,-12825,-32768,5437
12245,-19732,2444,-1856,-12770,-32768,4958
12267,-23384,2616,-4204,-10912,-32768,4238
12289,-27032,3264,-4084,-12103,-32768,2958
12311,-29976,3152,-3020,-9400,-32768,2461
12333,-32768,3524,-7700,-2614,-32768,2843
12355,-32768,3972,-13996,507,-32768,4167
12377,-32336,2184,-17036,1663,-32768,4398
12399,-27084,-744,-22484,-3724,-30508,3058
12421,-18220,612,-32768,1338,-20794,3412
12443,-10068,-4252,-32608,3025,-9408,3682
12465,-10268,-5484,-26648,3964,3884,1332
12487,-16348,-52,-22132,-654,13244,-2068
12509,-19492,268,-16440,286,16700,-2392
12531,-28196,2920,26100,8531,7682,-3324
12553,-12116,-12420,4068,-472,16678,-108
12575,-32768,-10032,-16792,8388,18115,-856
12597,-18468,22096,-12748,6047,18003,8371
12619,-25816,-152,880,-4424,9571,-2268
12641,-16688,4008,-1528,-6427,11289,219
12663,-14204,2844,248,376,8133,-1430
12685,-17748,2160,-532,2776,6918,-1309
12707,-16960,3196,-536,5256,6063,349
12729,-16276,3112,508,6416,5246,1221
12751,-15756,3736,300,4713,5236,272
12773,-14960,4360,-180,2949,5467,-337
12795,-15456,5232,-708,1558,5555,-927
12817,-16064,3432,-1084,568,5257,-1376
12839,-16664,2776,-1256,770,5116,-1464
12861,-16372,3332,-1088,-25,5674,-1072
12883,-15636,3808,-1416,-1137,6794,-1288
12905,-15644,3980,-2064,-2745,8066,-1256
12927,-15892,3944,-2132,-5158,9623,-2205
12949,-16596,3336,-2604,-6087,11436,-2716
12971,-17332,3352,-3332,-6310,13316,-2922
12993,-18500,3288,-3636,-5053,14338,-2484
13015,-20568,1208,-3896,-4158,13410,-2869
13037,-19920,1740,-3276,-2952,13130,-2477
13059,-18908,2400,-3152,-1695,13705,-2706
13081,-19756,2408,-3432,-501,14826,-2476
13103,-20464,2636,-3828,-363,15436,-2660
13125,-20552,3544,-3428,1644,14932,-2558
13147,-23332,2988,-588,2978,14679,-3161
13169,-21728,3896,864,9119,13800,-2615
13191,-24316,16,4712,14407,15172,-2583
13213,-21396,8276,-3652,20113,20778,-374
13235,-28836,7844,-2596,17029,20426,-1195
13257,-26072,6396,-4816,4870,11025,-2961
13279,-17684,11860,-9556,11928,18453,-5405
13301,-18568,8644,-3536,-6241,13292,-10402
13323,-16436,1920,16704,-14872,-722,4967
13345,-2152,7692,12924,-5180,-6012,-153
13367,-8036,668,3972,-888,-12786,-1686
13389,-9312,2216,2644,-1295,-20081,1107
13411,-10132,3148,3784,-1775,-26490,2654
13433,-12016,2584,1748,-2099,-31497,3580
13455,-14636,1852,580,-5258,-32768,3439
13477,-18108,232,52,-4709,-32768,4062
13499,-23248,828,-3036,-2058,-32768,4453
13521,-26840,1864,-4968,-1180,-32768,5654
13543,-30448,2056,-9140,-2801,-32768,6683
13565,-32768,3144,-12820,-6904,-32768,6878
13587,-32768,2740,-18108,-7327,-32768,6003
13609,-32284,2760,-23612,-5656,-32768,4581
13631,-24100,-4592,-31876,-1573,-27519,2780
13653,-13488,-4156,-32768,10973,-11989,6156
13675,-9988,-5628,-32768,11780,4226,1763
13697,-18372,1604,-19504,4236,12796,-9872
13719,-26116,3856,32767,-865,7003,2281
13741,-27832,-18856,-26404,-2996,18979,-6937
13763,-25160,2780,-844,7518,18052,2234
13785,-20056,11272,-8364,-7,19298,3172
13807,-18828,3152,-5280,-5885,13197,-358
13829,-12696,3780,684,-3487,11023,-3035
13851,-19508,-1412,-1332,-231,10032,-3335
13873,-16896,1736,-492,975,8864,-1892
13895,-16940,1420,-268,383,7619,-186
13917,-16876,2764,-108,-1897,6979,-616
13939,-15584,3784,-384,-3554,6261,-1212
13961,-15876,2144,-584,-2073,5674,-2193
13983,-16372,1452,-1208,-1592,5756,-2158
14005,-15976,1984,-492,-1558,6056,-1031
14027,-16500,2620,-588,-2317,6318,-915
14049,-16060,3036,-704,-4445,6738,-1427
14071,-16228,2808,-1640,-5957,7596,-1261
14093,-16472,2096,-2828,-7515,8617,-1632
14115,-16296,1880,-2648,-7560,9851,-2363
14137,-16928,2320,-2512,-5432,11465,-2372
14159,-18260,2772,-3900,-1758,12470,-2533
14181,-19372,2796,-3740,3058,14781,-3060
14203,-21796,2328,-2856,5794,17413,-2917
14225,-22776,-1784,-1824,6432,17028,-4673
14247,-23384,-1860,-3376,4169,16289,-3676
14269,-21336,1336,-3056,3942,16148,-2961
14291,-24188,1424,-1124,3795,16113,-2995
14313,-27132,6420,3816,5247,15630,-3791
14335,-32768,-604,16668,15183,-1484,-4016
14357,-18444,1784,-9996,31543,17261,-5989
14379,-27056,7364,-10952,14631,25756,-1905
14401,-26132,11872,-10104,4473,24413,-3858
14423,-10716,7104,-7880,-513,16766,-8425
14445,-12740,8036,21952,-12745,4533,5632
14467,-5408,6068,11448,-7911,-2171,2550
14489,-7940,3128,9028,-9526,-10416,5044
14511,-8960,3960,8136,-6981,-17560,6083
14533,-12132,424,5648,-6028,-24356,6061
14555,-14748,-1540,2388,-5920,-29063,7361
14577,-18508,-868,1712,-7471,-32581,7916
14599,-21868,-996,-660,-6572,-32768,7299
14621,-24908,288,-2440,-8092,-32768,6940
14643,-28332,1048,-2476,-9829,-32768,5801
14665,-30840,1544,-3136,-10539,-32768,3946
14687,-32768,2820,-4872,-9342,-32768,3475
14709,-32768,1624,-8248,-8499,-32768,2611
14731,-32768,-620,-13716,-4728,-32768,2281
14753,-28208,-3312,-18424,3401,-31716,2239
14775,-21076,1320,-25364,705,-24837,4507
14797,-11528,2632,-32768,7880,-15663,1269
14819,-9068,-5284,-26936,13030,-4256,2547
14841,-12524,-4516,-23276,12817,8717,-1044
14863,-18204,664,-17008,3081,13085,-3702
14885,-19480,576,-15108,6571,17014,-2687
14907,-32768,-1644,32767,4158,3368,-4808
14929,-6560,-13876,-11080,-4625,21936,-5133
14951,-32768,-944,-9144,-1141,19635,3591
14973,-25796,18892,-20216,4224,21131,5040
14995,-20480,-2628,2272,-7001,14131,407
15017,-18192,4644,-1308,-3134,12643,4173
15039,-14148,5172,-592,127,9189,-871
15061,-17884,1784,-952,2499,7026,-1363
15083,-16944,2976,-116,3635,5679,-166
15105,-17116,1668,108,4357,4727,292
15127,-16532,2556,60,1678,4577,70
15149,-15056,5136,-1140,565,4455,427
15171,-14908,6728,-1372,875,4681,-35
15193,-14900,5116,-1468,-2378,5431,-1327
15215,-15608,3840,-1652,-4957,6882,-2412
15237,-16060,2132,-980,-6170,8618,-2152
15259,-16016,3008,-1124,-4105,10788,-1539
15281,-16580,2764,-2248,-4189,12811,-1878
15303,-18336,3048,-3060,-1563,13168,-2085
15325,-18956,3224,-3260,1309,13389,-1471
15347,-20468,1208,-3312,2163,13085,-2067
15369,-20864,3128,-3868,3246,12703,-1659
15391,-20436,2684,-3452,2624,12752,-1655
15413,-20092,1884,-2928,2536,13395,-2524
15435,-19504,2472,-2176,2728,15076,-2860
15457,-20336,2472,-1720,4473,16840,-3053
15479,-24192,2932,1480,5847,18702,-2784
15501,-26036,5204,4064,8827,19074,-3571
15523,-28760,2456,5164,11700,17810,-2955
15545,-28660,6348,-5168,16908,13972,111
15567,-24800,10800,-3372,10269,19525,441
15589,-21360,9612,-4116,9550,23038,-5253
15611,-31804,7580,-5244,2242,15695,-5587
15633,-11440,6164,17408,731,2242,2331
15655,-4644,7280,9544,5445,-2943,-1478
15677,-7440,3564,3124,2854,-10506,1789
15699,-7448,5096,2956,-1143,-17777,4315
15721,-9852,4952,1616,-5544,-23118,6452
15743,-10976,4836,-896,-9772,-27813,7000
15765,-13864,5636,-2964,-11830,-31798,6793
15787,-16528,5444,-4176,-10465,-32768,6598
15809,-20524,3912,-6024,-9390,-32768,6796
15831,-23192,3868,-7248,-7537,-32768,7463
15853,-25780,7628,-8176,-9155,-32768,8088
15875,-29768,6612,-8536,-10369,-32768,6373
15897,-30200,4740,-9324,-5809,-32768,6902
15919,-32536,2756,-12340,4183,-32768,9009
15941,-31536,3152,-17324,3479,-31356,10208
15963,-24820,1232,-20136,-4018,-26557,10108
15985,-17840,712,-22968,-998,-18339,8950
16007,-12376,-3568,-24840,5272,-6720,8333
16029,-13352,-2372,-23344,4107,4525,4389
16051,-15416,-3580,-18524,-1820,12290,-104
16073,-17716,304,-16392,-13095,18002,-6346
16095,-22700,-8192,32767,-24112,19869,-932
16117,-32192,-20408,-25336,-3856,22665,-7058
16139,-22764,26700,-18212,10194,25671,11662
16161,-20132,-6768,2016,-11420,13827,-4166
16183,-19148,3692,-1344,-11394,11758,610
16205,-14152,4060,300,-1259,7600,-2236
16227,-18016,1792,188,5087,5870,-1139
16249,-17736,2136,692,7871,4064,1479
16271,-17068,3172,740,7916,4048,2450
16293,-13492,7420,436,4196,4501,943
16315,-13564,6700,-228,2115,5338,-1043
16337,-15356,5076,-460,-55,6200,-1346
16359,-15008,4040,4,-1686,7575,-1780
16381,-15912,2676,-448,-3779,9832,-2001
16403,-17796,3896,-604,-3706,11321,-1459
16425,-17580,4020,-1656,-3178,12397,-953
16447,-16776,4124,-2296,-5408,11735,-3230
16469,-18332,3108,-2660,-1371,11435,-1786
16491,-18520,5280,-2980,1239,10856,-759
16513,-18512,4556,-3544,718,10167,-1347
16535,-18660,4380,-3372,1934,9763,-646
16557,-17172,3504,-3436,2150,10861,-759
16579,-18412,3704,-2292,2466,12669,-1076
16601,-18824,3524,-2972,2587,14764,-1760
16623,-20116,3384,-2976,4054,16251,-1505
16645,-21252,2220,-2236,5199,16359,-1345
16667,-25788,2008,580,4827,16255,-2422
16689,-23632,932,2656,9205,16010,-2201
16711,-23392,-1364,2976,11543,17115,-2996
16733,-26088,5540,-3700,12224,23621,262
16755,-29076,7616,9864,4539,17327,597
16777,-22796,8348,-7600,7041,11738,-2118
16799,-16712,5180,-15840,5840,23503,-5010
16821,-32768,2612,-10616,-7682,13079,-4957
16843,-10920,8944,18008,-5874,-1696,2828
16865,-6232,3004,10272,2600,-5989,-3263
16887,-8732,1044,3496,9771,-15019,-19
16909,-8968,5560,5564,3360,-21855,2473
16931,-10336,4504,5120,882,-28086,2675
16953,-12672,4208,2468,-451,-32768,4223
16975,-15280,2432,-272,-4061,-32768,4571
16997,-18648,2536,-1152,-6090,-32768,5849
17019,-23144,4116,-3996,-5123,-32768,6789
17041,-28340,4100,-5060,-9407,-32768,7766
17063,-32768,3304,-9760,-8381,-32768,6859
17085,-32768,1596,-18560,-2118,-32768,7247
17107,-32768,1736,-31616,-5581,-32768,8136
17129,-28216,4396,-32052,-10566,-29365,4869
17151,-21376,-4040,-32768,-6098,-22028,-1376
17173,-12688,-5108,-32768,7453,-8218,2227
17195,-12592,-1948,-32768,12512,5646,1707
17217,-18568,5204,-18632,7073,11018,-6256
17239,-16884,7596,32767,-4236,7492,56
17261,-25608,-17060,-28460,-2255,18735,-4201
17283,-27268,5276,2464,3296,16246,2966
17305,-24304,12164,-13316,-6240,18187,3070
17327,-19684,1156,-888,-9435,11166,-652
17349,-11540,4376,-820,-4818,10570,-1972
17371,-18552,1144,-484,-2080,8868,-2740
17393,-16284,1424,152,1339,7502,-1112
17415,-16752,1904,472,970,6461,539
17437,-16928,3300,700,-2625,6248,40
17459,-14788,4424,272,-5112,6298,-1448
17481,-15284,4128,-308,-4308,5957,-1841
17503,-15844,2184,-420,-5652,6226,-1832
17525,-16088,2112,52,-5484,6940,-1019
17547,-15940,3036,-616,-5838,7920,-1120
17569,-15940,3188,-700,-4657,8253,-945
17591,-16132,2972,-1492,-3629,8987,-1271
17613,-16488,1960,-1944,-1804,9997,-1341
17635,-16376,2044,-2128,27,11159,-1034
17657,-16196,2508,-2528,1308,12849,-1228
17679,-17252,3160,-3348,1612,13710,-2076
17701,-19688,3620,-3652,1741,13661,-2867
17723,-20576,1324,-3740,2866,13577,-2246
17745,-21136,-468,-4276,2993,14221,-2325
17767,-20364,1692,-3580,3455,15287,-1746
17789,-22756,2888,-3004,3085,17265,-1534
17811,-24812,5684,-1812,5577,17520,-2382
17833,-26492,2400,848,10259,18478,-570
17855,-29832,796,4820,16479,17804,-642
17877,-25100,2612,4080,25613,20254,-1171
17899,-24852,1388,-7768,22171,25820,-2769
17921,-25296,10016,2888,-3418,11726,-5178
17943,-17752,10664,-3912,15296,15016,-1586
17965,-18348,11368,-3248,-468,13894,-10813
17987,-12784,432,9824,-13689,-591,3264
18009,-3592,5716,10984,-7804,-4681,4310
18031,-4420,2804,5096,-5803,-10219,4737
18053,-6900,2552,2176,-9643,-17046,4672
18075,-9028,1080,1104,-8688,-23211,4689
18097,-11312,1388,1592,-10790,-28305,5312
18119,-13960,1112,536,-12162,-32424,4555
18141,-18204,-672,-1008,-12530,-32768,2883
18163,-21300,-728,-2168,-9030,-32768,2285
18185,-25844,1420,-3612,-6053,-32768,1888
18207,-30048,3704,-5752,-7108,-32768,2324
18229,-32768,3792,-6520,-7844,-32768,1512
18251,-32768,2900,-8308,-5847,-32768,1336
18273,-32768,3188,-10708,-4278,-32768,2311
18295,-29260,2396,-11460,-1184,-32768,2061
18317,-25572,-4204,-17092,4087,-29406,2225
18339,-17068,-844,-31276,5906,-20538,4024
18361,-7924,280,-30876,7795,-7570,4227
18383,-8316,-2704,-22380,11787,6296,-1366
18405,-16048,-220,-21428,5665,15337,-4040
18427,-19936,-568,-17104,2633,19156,-2821
18449,-23924,2336,-6360,2557,20215,488
18471,-10844,22472,32767,-8621,8854,-201
18493,-16252,-13180,-32768,3301,25226,-5422
18515,-21428,21300,1700,9896,15832,4585
18537,-25508,7492,-5784,-5302,16924,-4551
18559,-18460,-4092,-4416,-9839,16942,-2977
18581,-18188,1056,-4,-837,12010,495
18603,-18652,1924,-1340,120,9783,-875
18625,-17248,2788,-1596,1280,6619,-714
18647,-16924,3340,-244,1655,4582,-287
18669,-15628,3808,76,1546,4528,-985
18691,-15400,4004,-416,185,5189,-1264
18713,-15136,3976,-736,-2607,5829,-1685
18735,-15784,3448,-1392,-6187,6066,-1510
18757,-15864,3260,-1548,-8803,6605,-1806
18779,-16060,2056,-852,-8139,7902,-1981
18801,-16660,1120,-1492,-3657,9067,-1161
18823,-16256,2092,-1476,-386,10297,-544
18845,-16824,3064,-2156,1209,10953,-307
18867,-16608,3444,-2984,1129,11674,-607
18889,-17928,2752,-3196,1392,11543,-1077
18911,-18192,3104,-3284,2188,11478,-976
18933,-19764,2208,-3428,2828,12127,-1181
18955,-20852,604,-3736,1766,13423,-1653
18977,-20772,1032,-3464,1268,14610,-1625
18999,-21172,2056,-3840,1001,15799,-2412
19021,-21764,3100,-3116,1879,15986,-2288
19043,-25308,3060,-960,2011,16502,-2649
19065,-22056,5500,1228,8697,15750,-2287
19087,-26760,4392,5112,16850,15748,-1805
19109,-22988,7344,-4068,25434,22443,-1099
19131,-26912,4628,-1484,20619,26553,-1007
19153,-22216,4776,1396,3947,20050,-3803
19175,-18684,8864,-4764,24612,16371,-2349
19197,-21676,12504,-13552,7173,19732,-9139
19219,-18288,4932,7020,-19558,-2119,-212
19241,-5992,5068,11152,-15031,-5068,1198
19263,-6168,876,5516,-12797,-10397,1523
19285,-7956,3340,-96,-7753,-17060,2916
19307,-8440,2668,1200,-9187,-24047,3855
19329,-10212,2332,2012,-9021,-29636,3998
19351,-12916,3064,-324,-8552,-32768,4175
19373,-16688,2108,-728,-12203,-32768,4152
19395,-21180,1644,-1312,-10494,-32768,3321
19417,-23092,3020,-4524,-7075,-32768,4263
19439,-28864,4176,-8284,-10363,-32768,5081
19461,-32768,4556,-13844,-14433,-32768,3487
19483,-32768,3948,-20648,-11966,-32768,1538
19505,-32768,3524,-25380,-4590,-32768,1444
19527,-20576,2972,-32148,-2316,-30087,95
19549,-17400,-3376,-32768,8387,-19425,1935
19571,-11228,-3684,-32768,16295,-4702,4694
19593,-13488,768,-30908,10717,8950,-1475
19615,-17856,-2744,-21540,3426,15700,-4656
19637,-32768,-664,32767,-5085,-5864,642
19659,-3744,-10880,-20384,4800,15170,-9061
19681,-32768,-9812,-840,6672,13682,1385
19703,-13620,4596,-4456,3078,16115,250
19725,-25348,10332,-5500,2656,11616,4712
19747,-17692,1144,128,2847,9518,-1766
19769,-16292,4660,-624,6348,8460,117
19791,-16308,5240,-936,5456,6285,-1489
19813,-16536,3684,-152,3013,5066,-581
19835,-16212,4304,444,-1964,4542,-1031
19857,-14596,5480,1056,-4737,4654,-1718
19879,-14592,5676,144,-6256,5501,-2511
19901,-14912,5212,672,-5711,5869,-2016
19923,-15496,2964,-740,-5668,7314,-2094
19945,-16392,1952,152,-5784,8575,-1522
19967,-16648,4048,-772,-4823,10347,-653
19989,-15712,4020,-2040,-4539,12310,-1105
20011,-17192,2872,-2340,-4314,13638,-2288
20033,-17828,4140,-3136,-1323,13799,-2021
20055,-18528,1856,-3236,189,14037,-2879
20077,-20084,1772,-3400,1148,12861,-3014
20099,-20468,1588,-3048,3364,11788,-2456
20121,-20104,120,-2420,2089,11942,-2368
20143,-19752,-148,-2980,1777,13826,-2075
20165,-20112,1636,-3004,1126,15628,-2043
20187,-21828,2660,-2556,-219,16392,-2874
20209,-22520,3008,-2260,1827,15518,-2928
20231,-25076,3284,1596,3665,15227,-3639
20253,-22276,4096,4580,10840,14859,-3440
20275,-24540,3288,4084,17645,17739,-3725
20297,-26264,7580,-2916,21044,25573,-1737
20319,-24864,2612,1080,10550,22657,-3950
20341,-27036,8948,-4000,10644,12597,-712
20363,-19096,6240,-17244,8142,26609,-6567
20385,-32768,3784,-8380,-11466,9726,-3240
20407,-9180,11056,17532,-8318,-4709,5302
20429,-7156,3324,6480,-7501,-9211,1073
20451,-8968,2540,580,-5447,-14794,5044
20473,-8180,3504,1368,-8037,-22175,4748
20495,-9792,5128,1212,-10720,-27425,4330
20517,-12424,3776,520,-13713,-32649,4475
20539,-15908,3848,-808,-15286,-32768,4347
20561,-20584,2052,-2612,-15563,-32768,3483
20583,-24020,2952,-2944,-13905,-32768,2888
20605,-28192,3080,-3384,-11630,-32768,2173
20627,-32768,2716,-7204,-9771,-32768,1677
20649,-32768,3324,-11016,-7598,-32768,1164
20671,-32768,3896,-19356,-3008,-32768,1257
20693,-32768,-888,-24284,979,-32768,1584
20715,-21200,1064,-32768,6773,-28120,2084
20737,-12136,-908,-32768,14594,-16304,288
20759,-8572,-5748,-32768,16654,-1557,2507
20781,-12404,-1596,-27472,11849,9972,73
20803,-18920,1308,-20720,228,16571,-3248
20825,-22032,-2052,-11284,1306,19790,-1654
20847,-32768,6528,32767,602,228,1172
20869,-1304,-17020,-9124,6622,11765,-6414
20891,-32768,3284,-8832,5852,13434,7931
20913,-16468,13244,-15364,-6288,18037,-4116
20935,-16908,-1580,-248,-5340,14398,-1932
20957,-19412,2544,-1360,110,11788,1410
20979,-14672,4400,-380,886,8782,-874
21001,-17064,3640,-256,2521,6175,-1094
21023,-16672,3700,-200,3191,4514,-483
21045,-16260,3544,232,2060,3939,-1112
21067,-15092,4028,-120,-452,4717,-665
21089,-15028,4708,-588,-5212,5067,-1293
21111,-15316,5312,-416,-7353,5916,-1672
21133,-15312,4136,-452,-7324,7147,-2579
21155,-16072,3320,-580,-6292,8074,-2587
21177,-17180,3132,-1168,-3242,8960,-2070
21199,-15696,5512,-932,-788,9703,-984
21221,-17128,2520,-2164,-1550,10544,-1859
21243,-17484,2848,-2712,68,9975,-2097
21265,-17348,2792,-2496,473,10010,-2131
21287,-18008,2040,-2560,1041,10536,-2318
21309,-18928,2488,-3108,1916,11131,-1236
21331,-20820,1416,-2608,1437,11750,-1816
21353,-19556,1264,-2688,1103,13187,-1709
21375,-19616,1980,-3232,-565,14924,-2416
21397,-20812,3532,-3812,-831,15711,-2925
21419,-21040,4820,-3020,1651,15073,-2864
21441,-25584,5668,276,2659,16198,-3429
21463,-23292,5300,2556,9854,16448,-2217
21485,-25864,2732,4848,15878,16543,-2096
21507,-22244,7968,-1020,23094,22472,-619
21529,-26736,2456,2364,24317,22524,-1869
21551,-26228,6500,-6040,3224,18981,-1365
21573,-20556,12348,-10376,19366,20461,-801
21595,-29000,11640,1924,-3184,9365,-6980
21617,-10680,6756,14488,-13364,593,2193
21639,-7176,3408,10224,-11698,-5961,-194
21661,-9128,3592,1428,-6735,-13277,2608
21683,-9404,4500,2036,-10955,-20911,4020
21705,-9800,3840,2456,-11072,-27262,3806
21727,-12016,3464,516,-11101,-31928,3821
21749,-15804,3060,-524,-12420,-32768,3323
21771,-19916,1412,-2788,-11725,-32768,2091
21793,-24360,1780,-3304,-9400,-32768,2483
21815,-27956,2296,-3756,-6015,-32768,2420
21837,-31580,3752,-10796,-3252,-32768,3270
21859,-32768,5692,-10636,-3921,-32768,3585
21881,-32768,1868,-15296,-3260,-32768,2161
21903,-30680,3756,-20584,-154,-32768,3192
21925,-23916,1400,-25116,1325,-30360,1764
21947,-16832,-5900,-32768,13240,-19367,4344
21969,-9708,-4336,-31980,14495,-3939,6455
21991,-12904,232,-27100,8511,6973,763
22013,-16424,-1556,-18388,-1967,12531,-3879
22035,-20056,-1332,-12820,-833,17391,-1078
22057,-29464,6808,18424,-2043,12471,-421
22079,-8976,9036,32767,-14302,8759,-1364
22101,-24832,-12436,-32768,5089,25814,-6451
22123,-21944,22256,-5716,12916,14081,6288
22145,-30068,1304,-2748,-5217,11067,-1803
22167,-18604,1012,-868,-4914,12265,-642
22189,-12996,5308,-28,-36,9017,1437
22211,-17700,3204,-1128,-1053,6451,-1956
22233,-17028,3488,-116,2187,4440,-2988
22255,-17396,2316,48,760,3585,-1989
22277,-16000,3592,1672,452,4096,-274
22299,-14644,4304,1432,-209,5009,-809
22321,-14076,5596,1008,-254,5988,-1022
22343,-15184,4728,620,-670,6852,-1864
22365,-15388,3592,-300,638,7754,-1560
22387,-16132,3056,-984,1607,8460,-756
22409,-15000,4248,-972,2230,9116,-370
22431,-16480,3548,-2080,-495,9478,-1463
22453,-16992,4452,-2632,776,9708,-1275
22475,-17260,3044,-2896,-761,9801,-2360
22497,-17324,4860,-2916,-662,10920,-2378
22519,-17996,4324,-2852,-1843,12671,-2992
22541,-19108,1708,-2380,-2364,14499,-3127
22563,-20124,2476,-2328,-1904,15618,-3057
22585,-20408,1072,-2612,-1472,16000,-2831
22607,-20244,2368,-2920,-630,16606,-2780
22629,-21620,3424,-2580,-32,16984,-3779
22651,-23960,3588,-676,2457,16854,-3807
22673,-23644,5412,1880,7000,16574,-4453
22695,-26056,3044,5880,10743,17467,-4214
22717,-24428,2412,3836,18083,19522,-3507
22739,-26412,8488,-12932,17369,26499,-1483
22761,-32768,9864,10308,233,15404,-1405
22783,-19864,5872,-744,14532,19247,-3595
22805,-17136,8852,-13736,-780,25618,-11376
22827,-15824,1592,15080,-14703,-1842,4190
22849,-4256,7912,14492,-9797,-5631,1129
22871,-7828,672,3520,-5342,-11376,-1100
22893,-8584,2408,-420,-5248,-18388,2254
22915,-8780,5164,3312,-7445,-26396,2816
22937,-10440,3416,2700,-8723,-31416,1709
22959,-12664,2408,-668,-5712,-32768,2543
22981,-17304,2036,-2252,-6121,-32768,3659
23003,-22524,1632,-1992,-4438,-32768,4408
23025,-25528,2128,-3852,-2096,-32768,4865
23047,-30880,5012,-8820,-2843,-32768,7037
23069,-32768,4592,-13000,-8705,-32768,6686
23091,-32768,3132,-17776,-10935,-32768,4741
23113,-32768,2816,-22792,-8673,-32768,4337
23135,-25364,756,-27364,-9741,-31669,2048
23157,-16580,-5460,-32768,6324,-18936,2867
23179,-9952,-3068,-32768,12432,-2201,4967
23201,-11964,-664,-29672,8661,9561,-3768
23223,-17132,-1680,-21052,3562,16262,-5416
23245,-32768,8040,32767,5007,4904,-3383
23267,-12000,-2676,3640,-5045,16848,346
23289,-32768,-17992,-17580,7973,21141,-3287
23311,-20232,18300,-16040,6918,21203,7188
23333,-30416,7844,-2080,-783,11287,1615
23355,-13604,5284,-292,-1561,11961,-282
23377,-12652,6868,-100,1690,9426,-1301
23399,-15776,4992,-948,3112,7432,-3210
23421,-17456,1964,-424,-1061,6743,-2544
23443,-17812,1796,-116,-4332,6593,-1011
23465,-15968,2520,232,-8097,6685,-1128
23487,-15156,4472,-532,-8747,6910,-848
23509,-15356,4556,-452,-8019,7179,-1573
23531,-16012,4184,-732,-5628,7721,-1004
23553,-16084,3180,-1248,-4646,8221,-1527
23575,-17280,2260,-1236,-2953,8977,-1752
23597,-16912,3096,-1356,-253,10110,-1118
23619,-16620,2956,-2268,-343,10842,-1421
23641,-17444,2904,-3332,464,11387,-1820
23663,-18044,3388,-3564,1692,10879,-1912
23685,-18620,3944,-2836,2481,10799,-1963
23707,-19272,1332,-2528,2600,11197,-1899
23729,-19376,2156,-2456,2469,12626,-1513
23751,-20996,2384,-3000,2784,13757,-1467
23773,-20588,784,-3468,2699,14993,-1518
23795,-20764,1820,-3084,2687,16105,-2346
23817,-20948,3168,-2304,3608,16390,-2360
23839,-24912,4412,1444,4122,16921,-3246
23861,-24384,2868,4128,11420,16563,-2871
23883,-26224,2208,7576,20574,17615,-3245
23905,-26960,8008,-8792,16200,20472,-1711
23927,-25632,9560,-7512,10096,20084,-139
23949,-28680,10676,-1292,11543,18566,685
23971,-16124,4736,-3000,6448,19598,-9327
23993,-16412,7196,9604,-2131,4366,3549
24015,-7820,5960,10976,-4191,-4503,925
24037,-7744,3196,3940,-5799,-11002,2532
24059,-8808,3320,1456,-9258,-17083,4612
24081,-9924,3968,2288,-10451,-23824,5624
24103,-11596,2540,1548,-10884,-29160,5602
24125,-14060,1852,688,-11197,-32768,5626
24147,-18260,1676,-1332,-8739,-32768,4725
24169,-21552,44,-3856,-4471,-32768,4738
24191,-25396,960,-5548,-2987,-32768,5678
24213,-29124,2468,-7028,-8241,-32768,5281
24235,-32768,2040,-10032,-9274,-32768,3726
24257,-32768,2660,-15152,-6718,-32768,3282
24279,-32768,3524,-20132,-1808,-32768,4614
24301,-27864,1696,-24408,-2230,-31434,3129
24323,-19140,-5564,-32656,-2905,-22425,1797
24345,-12324,-6940,-32768,3814,-7087,3395
24367,-10700,-3608,-32696,5170,6775,-49
24389,-16692,-2584,-27180,389,16074,-5342
24411,-32768,4468,32767,289,-1161,-3753
24433,-7768,-5460,-17612,-1728,19380,-6737
24455,-32768,-3680,-1832,5349,16593,1146
24477,-16936,4740,-8424,1193,20484,-443
24499,-25924,11812,-7192,-3108,14841,2396
24521,-19748,644,-364,-3786,12097,-1864
24543,-16184,92,-860,-2300,10529,-1393
24565,-17212,2400,-868,125,7737,-925
24587,-17516,1864,-656,1255,5685,-935
24609,-16948,2396,120,1134,5130,234
24631,-15488,4080,524,-438,5228,-117
24653,-14476,4920,-236,-1638,6051,-1118
24675,-15156,3976,-212,-3309,6714,-2025
24697,-15936,2256,-1072,-5610,7250,-1849
24719,-16500,2456,-1096,-6556,7771,-1239
24741,-15864,2336,-592,-6204,8935,-936
24763,-16000,2516,-1828,-4530,10185,-921
24785,-16212,3864,-2616,-948,10931,-188
24807,-16264,4400,-3224,-776,11368,-905
24829,-17204,2176,-3208,-1463,11153,-2043
24851,-17848,2072,-3364,-722,10619,-2277
24873,-18416,2384,-2980,309,10358,-2581
24895,-19712,1964,-3192,1385,11180,-2115
24917,-21300,676,-3020,2287,12793,-2047
24939,-20756,568,-2916,1614,14320,-1823
24961,-21300,1876,-3136,1243,15438,-1810
24983,-21836,3304,-3228,2090,15818,-2397
25005,-21060,3464,-2212,3989,15662,-1909
25027,-24332,2396,1308,6571,16858,-1320
25049,-23744,6996,5320,14600,15988,-1466
25071,-23104,3952,4280,25936,18633,-1698
25093,-30060,2796,-1896,22768,23316,-1499
25115,-25636,388,-2120,8487,17340,-2962
25137,-18132,12836,-8136,23475,19454,1398
25159,-17396,13996,-1264,7525,12885,-8589
25181,-30040,-956,-268,-16949,4158,-4179
25203,-1888,9660,19412,-12039,-6413,8646
25225,-7780,5288,6184,-9646,-11401,1873
25247,-7744,4108,1316,-13935,-18754,5340
25269,-10584,3488,3900,-13958,-26025,4839
25291,-13100,3196,2388,-12930,-31175,4724
25313,-16480,2848,520,-13950,-32768,5173
25335,-20116,2360,-1700,-15029,-32768,3839
25357,-25044,2132,-4312,-14633,-32768,3700
25379,-30168,3924,-7272,-17720,-32768,2286
25401,-32768,5416,-10376,-18100,-32768,2516
25423,-32768,5132,-13120,-11393,-32768,959
25445,-31496,3180,-16316,-3133,-32768,-589
25467,-28500,2212,-20896,4045,-32570,325
25489,-23328,2984,-25644,3799,-26838,-982
25511,-18020,-24,-29324,5439,-21069,992
25533,-12460,-2512,-26356,5166,-12425,2756
25555,-11400,-3408,-24188,7595,-3179,2605
25577,-14160,-2380,-20564,5338,2245,-401
25599,-15432,-1860,-14280,2335,8548,-594
25621,-17800,-1240,-11736,4975,11764,131
25643,-18724,1228,-7708,1873,13215,199
25665,-29944,26296,32767,6609,-12012,330
25687,-10024,-13620,-29592,-1134,11891,-9520
25709,-31136,-2788,7476,7017,8598,-777
25731,-16376,3356,-4512,-2480,14370,-2103
25753,-20360,5368,-1124,-3913,13349,1435
25775,-16660,4260,376,-5356,13195,468
25797,-17708,3936,-628,-2212,12375,-270
25819,-17820,3340,-1016,633,9401,-2273
25841,-16648,2760,-288,-559,7404,-2607
25863,-16708,1824,240,-354,6753,-2096
25885,-16272,2428,632,248,6409,-1009
25907,-15208,4080,712,-784,6331,-735
25929,-15688,3284,52,-1890,6514,-1382
25951,-16108,3196,204,-1127,6566,-1210
25973,-15756,3452,-736,-1076,6856,-1152
25995,-15428,2536,-1292,-1727,7509,-430
26017,-15740,3640,-1624,-3592,9494,-897
26039,-16648,3512,-1676,-3790,11346,-1145
26061,-16940,2900,-2540,-2050,12026,-1374
26083,-17252,3076,-3000,-1555,12233,-1744
26105,-18124,3496,-2952,-400,11281,-2326
26127,-18728,3184,-2868,725,10418,-2506
26149,-19752,1808,-2968,1313,10796,-2777
26171,-20088,1220,-3004,2187,11521,-2629
26193,-19688,1272,-3440,1662,12647,-2890
26215,-19088,2848,-3468,1001,14465,-3156
26237,-20664,3768,-3248,1678,15310,-3288
26259,-21652,2768,-2660,2378,14946,-3276
26281,-25304,3368,936,2248,14938,-4556
26303,-22276,2728,3920,7536,15133,-3470
26325,-23164,4400,7312,13805,17241,-3656
26347,-23888,3884,-7592,20541,24873,-2856
26369,-27104,-2388,7608,14606,23254,-5452
26391,-26532,14028,-10760,6550,19795,-1511
26413,-24016,15400,-14900,7944,19526,-2899
26435,-32768,7680,-12556,-11440,11193,-8602
26457,-10672,8972,19844,-20109,-3263,4074
26479,-6240,2464,10736,-9907,-5787,-164
26501,-8288,3144,4288,-4124,-14241,4599
26523,-9880,4168,3888,-3000,-22290,5392
26545,-11092,2208,4292,-4056,-29630,5458
26567,-13136,3500,3612,-3646,-32768,6100
26589,-17720,2256,84,-5173,-32768,6145
26611,-22068,1284,-1576,-8701,-32768,5590
26633,-25508,656,-2648,-5516,-32768,5181
26655,-30420,3312,-8092,-123,-32768,7354
26677,-32768,7164,-10020,-5956,-32768,9875
26699,-32768,6348,-9220,-9409,-32768,6676
26721,-32768,1812,-14368,-7771,-32768,3997
26743,-29548,7288,-20944,-3040,-32768,3655
26765,-25416,-2284,-27152,5851,-30610,2463
26787,-16020,-7412,-32768,17826,-18696,8761
26809,-8628,-4568,-32692,15301,-3268,7090
26831,-11188,-4144,-28268,2926,9612,-2423
26853,-16676,-1808,-21004,-4106,18138,-2860
26875,-19616,-1204,-15096,-2224,21670,-2226
26897,-23048,396,-11380,89,23520,-747
26919,-32768,7280,32767,5529,-7104,-3135
26941,5636,-20752,-1724,-4563,9770,-12021
26963,-32768,-15720,-5836,-1507,9231,-923
26985,-9856,12112,-14944,-7375,23301,-3956
27007,-27408,-9276,-5192,-12699,14700,-5023
27029,-20416,-104,-1940,-5339,14070,532
27051,-14356,3576,-1644,-4181,11309,-1050
27073,-15724,3636,-1272,1773,8272,-1476
27095,-17508,4172,-340,4371,5204,-1271
27117,-16252,2680,-164,3987,4549,-1427
27139,-15800,3332,-732,3492,5168,-183
27161,-14908,5424,-928,405,5885,-567
27183,-14828,4260,-1528,-5624,6429,-1545
27205,-15092,3924,-1428,-6793,7841,-1987
27227,-16452,3244,-832,-6105,9004,-1714
27249,-17008,2712,-1404,-1959,9817,-250
27271,-17452,4292,-2020,-1114,9376,-1066
27293,-16928,4308,-2032,-1153,8906,-2232
27315,-17724,4128,-2676,-263,9243,-2076
27337,-18144,3060,-2936,1471,9089,-2025
27359,-19116,2652,-3140,3324,9478,-1225
27381,-19524,1700,-2984,3482,9923,-1399
27403,-19616,1984,-2764,3754,11251,-741
27425,-19848,3292,-2888,1218,11786,-1588
27447,-19748,2952,-2808,165,13266,-2429
27469,-19328,3384,-2784,873,14918,-2356
27491,-20668,3260,-1992,3263,16147,-2487
27513,-23900,3304,936,5811,17679,-2151
27535,-22460,3156,3200,11665,17358,-2166
27557,-25176,1196,3492,17960,18347,-2064
27579,-23356,5024,-4152,23499,24155,77
27601,-25856,8756,3488,14759,23138,-1026
27623,-25668,9168,1120,8139,11293,-1674
27645,-20016,5780,-24000,15487,30052,-6204
27667,-32768,5384,-12088,-7345,10394,-4271
27689,-9208,12256,17764,-10438,-5331,4079
27711,-5856,2332,10396,-9810,-8501,-633
27733,-6988,1480,2936,-4315,-14439,1801
27755,-8480,3120,44,-3793,-21065,4580
27777,-9720,5520,2568,-6764,-27808,5156
27799,-12528,3816,1540,-10857,-32768,4508
27821,-15816,3668,-840,-11139,-32768,5405
27843,-20636,2660,-3120,-11682,-32768,4890
27865,-23868,1688,-2636,-11665,-32768,4730
27887,-28504,2432,-4424,-8287,-32768,4578
27909,-31720,3420,-7056,-9715,-32768,4798
27931,-32768,3852,-9756,-9423,-32768,3518
27953,-32768,2524,-13884,-5632,-32768,3057
27975,-32768,3084,-19104,755,-32768,2850
27997,-26304,3328,-24984,994,-32696,2308
28019,-19032,-4744,-32768,11714,-21654,3518
28041,-5068,-2076,-32768,11420,-5963,8544
28063,-8888,-1400,-25148,10721,7617,-2634
28085,-15496,-2360,-24712,1119,16417,-6382
28107,-20056,-428,-15868,-3218,19776,-2795
28129,-22720,836,-11536,3267,22578,-25
28151,-18756,12688,32767,-15851,2554,-1296
28173,-3040,-11248,-32768,5102,25035,-3993
28195,-32768,12388,10788,15966,6395,7407
28217,-20700,7360,-15628,-7734,20095,-1822
28239,-16860,1436,-1952,-5747,14222,-956
28261,-13816,5856,-512,-2786,11307,-1339
28283,-17440,2764,-2164,-714,8755,-4006
28305,-17096,2388,-1008,2074,6582,-3175
28327,-16736,3436,476,1452,5319,-1902
28349,-16456,2876,552,-983,6342,-960
28371,-14544,6140,-52,-2870,7335,-847
28393,-15012,4996,-556,-8505,7637,-2700
28415,-15304,3668,-1060,-10345,9209,-2843
28437,-16532,1652,-1196,-8798,10820,-2700
28459,-16596,2988,-1624,-3722,11136,-1939
28481,-17152,3056,-2296,-462,11430,-1142
28503,-17864,2752,-2728,-141,10570,-1895
28525,-17868,3056,-2720,-29,8803,-2578
28547,-18480,2400,-2816,395,7983,-2982
28569,-19388,1312,-2604,1851,8716,-2025
28591,-19220,1308,-2944,2074,9728,-2065
28613,-19644,1812,-2716,1422,11528,-1794
28635,-19496,3032,-2204,1405,13654,-1667
28657,-19680,2248,-2460,1610,15472,-2209
28679,-20188,3284,-2392,2112,16240,-2184
28701,-20724,3272,-2040,4115,16257,-2475
28723,-24116,1960,1652,6598,16796,-2360
28745,-20360,5476,3060,12526,16109,-3330
28767,-24356,4232,3076,19541,19289,-2520
28789,-29648,5392,-8936,18256,29337,-945
28811,-29456,3200,12044,5226,20192,-3275
28833,-17900,7840,-2524,17404,15914,-1099
28855,-20788,9192,-19244,13535,29877,-7171
28877,-32768,3928,-7520,-12393,5384,-2547
28899,-8652,11388,15940,-8873,-5170,6279
28921,-6448,940,6096,-12110,-7716,709
28943,-6708,2568,-76,-6532,-13680,4887
28965,-6456,4204,-344,-8253,-20601,5287
28987,-8504,4772,1328,-10978,-26342,4670
29009,-12260,1952,-928,-10756,-31237,4076
29031,-13844,1464,-2488,-9044,-32768,4826
29053,-17352,864,-2700,-7521,-32768,4343
29075,-21044,284,-4328,-6067,-32768,4122
29097,-23880,2004,-4208,-6155,-32768,4966
29119,-28692,2440,-3860,-8429,-32768,5011
29141,-32768,3492,-6664,-9852,-32768,3720
29163,-32768,2936,-10832,-6745,-32768,3448
29185,-32768,3396,-20468,-734,-32768,4917
29207,-30128,6296,-23992,-7803,-32768,4400
29229,-17508,-3656,-32768,716,-21707,1724
29251,-9020,-5304,-32768,8590,-2190,4946
29273,-11036,-1324,-32768,5873,11563,-2726
29295,-18608,-2284,-29320,1773,19847,-7865
29317,-32768,4648,32767,1139,-4774,1104
29339,-4864,-7844,196,6507,12630,-10585
29361,-32768,-19820,-22372,1872,22278,-727
29383,-12320,6192,2000,6956,19108,1268
29405,-26212,17316,-21740,1977,18850,5472
29427,-19368,-2444,184,-195,10284,-3529
29449,-15064,2456,104,1235,9745,466
29471,-16488,5560,-1620,4369,8000,-644
29493,-16916,3796,-1488,4235,6365,-1984
29515,-16224,2528,-776,2068,5606,-355
29537,-16836,3140,-932,-1380,5959,-840
29559,-15388,5192,-1664,-4925,5641,-335
29581,-14340,5136,-1232,-8153,6744,-1571
29603,-15768,3652,-1440,-7621,8013,-2485
29625,-16236,2288,-1300,-5244,8606,-1877
29647,-16660,2008,-1480,-2654,8470,-1291
29669,-16572,3924,-2064,-27,7930,-481
29691,-16444,5204,-2492,-1598,7864,-1529
29713,-16536,3296,-3436,-1938,8459,-1806
29735,-17368,3568,-3764,-1111,8196,-2033
29757,-18168,2436,-3492,336,7862,-2080
29779,-17896,2732,-3368,2424,8424,-1395
29801,-19276,1144,-3524,2365,9521,-1854
29823,-19908,2564,-2784,3311,10922,-1249
29845,-18940,1740,-3272,2251,12600,-1630
29867,-19624,2884,-3232,1771,14550,-2429
29889,-21292,4172,-2916,2134,15122,-2957
29911,-22912,2296,-1152,4690,15417,-2926
29933,-24220,4940,1924,8752,15793,-3796
29955,-25216,608,7000,15136,16506,-2078
29977,-26616,1024,5428,23815,19086,-1741
29999,-28272,5036,-14740,20169,28765,-1048
30021,-26036,11912,2504,9077,21132,680
30043,-24188,7976,-2860,10881,15862,-2683
30065,-6364,10992,-7200,8008,22515,-9816
30087,-22056,3232,-188,-9432,1291,3982
30109,-5092,7352,10712,-6797,-6067,3988
30131,-4764,2988,4896,-7362,-8915,1513
30153,-5604,2436,-2944,-5020,-13016,2857
30175,-7556,3520,-236,-11353,-20464,3838
30197,-8480,3752,832,-11102,-25056,3777
30219,-11740,2680,-3108,-12277,-28556,3918
30241,-15012,2508,-2152,-14257,-32768,4034
30263,-17488,1196,-4016,-12179,-32768,3265
30285,-20688,2076,-4044,-12416,-32768,2654
30307,-24024,1788,-4468,-10877,-32768,1453
30329,-27848,2224,-4212,-9897,-32768,1394
30351,-32104,3976,-6164,-7506,-32768,640
30373,-32768,3264,-9124,-2652,-32768,1012
30395,-32768,3000,-14396,1362,-32768,1737
30417,-28096,2100,-18736,3681,-32768,2337
30439,-18976,1112,-27156,4844,-25274,3151
30461,-12468,-2640,-32768,10006,-11730,3686
30483,-10180,-1752,-30856,10608,3070,2065
30505,-14200,200,-26444,3245,14214,-3627
30527,-32320,3432,31560,-5467,4571,-7359
30549,-9472,-11628,-13616,-6795,22807,-8711
30571,-32768,-12456,-8720,2502,19175,-510
30593,-18252,68,-2948,3328,19999,2006
30615,-26792,20328,-7744,208,16849,8683
30637,-17372,4012,-20,-1365,10986,88
30659,-13984,5060,-1632,-931,10319,-1628
30681,-17032,3252,-784,4723,7232,-1908
30703,-18248,536,-544,5770,6494,-703
30725,-16976,1380,84,3497,6070,1477
30747,-16592,3168,-256,4006,5714,876
30769,-15824,3908,-276,5508,4875,73
30791,-15524,5276,96,7671,4698,-366
30813,-16088,3520,-1236,9896,4354,-750
30835,-16364,4164,-1460,6832,4664,-581
30857,-16272,3944,-1664,4775,4531,-897
30879,-16588,4116,-2228,2951,4517,-1594
30901,-15392,4676,-2460,1758,4877,-1921
30923,-15544,4228,-2472,-1627,5312,-2470
30945,-15952,3988,-2824,-2077,6836,-3024
30967,-15888,3132,-2668,-3284,8810,-3346
30989,-16548,1744,-2760,-4335,11225,-3975
31011,-18944,2264,-2564,-4850,13276,-4093
31033,-19768,852,-2868,-5131,14587,-4330
31055,-19952,2500,-2936,-3907,14812,-3417
31077,-19300,3436,-3340,-2542,15167,-3409
31099,-20128,4584,-3144,-1183,15345,-3943
31121,-20980,3184,-3060,715,14832,-4283
31143,-21776,1640,-1464,3796,15644,-4302
31165,-25616,6024,1708,4682,16648,-5416
31187,-25080,1876,5924,8011,18413,-4401
31209,-23648,7484,2196,14767,20699,-3165
31231,-28544,984,-11236,16080,20565,-3564
31253,-23996,9548,-9064,4280,21843,-2813
31275,-19840,5976,-9320,10463,22707,-1937
31297,-27676,12288,-3128,-1509,16331,-9583
31319,-12788,5504,11768,-17758,2589,-2840
31341,-5616,4704,8900,-13800,-2739,-3516
31363,-7064,2584,1744,-7069,-8945,-3002
31385,-8088,3780,672,-7100,-15628,-736
31407,-8948,6872,3436,-9451,-21690,29
31429,-10124,6160,-84,-9349,-27579,-1003
31451,-12708,5036,-1896,-9857,-32243,-231
31473,-15692,6784,-2448,-11126,-32768,1582
31495,-18616,8484,-4284,-11481,-32768,2781
31517,-22228,8828,-5008,-15059,-32768,3391
31539,-25608,9800,-3384,-17636,-32768,4489
31561,-30508,8588,-4220,-16381,-32768,4742
31583,-32768,6020,-7144,-11536,-32768,5227
31605,-32768,1376,-13588,-1992,-32768,4919
31627,-32768,2920,-18632,3621,-32768,7655
31649,-29196,-4136,-21476,4996,-32768,2433
31671,-18772,2276,-31788,9191,-22787,6063
31693,-9392,-6800,-32768,16466,-8971,2613
31715,-10052,-2912,-31316,11493,4642,142
31737,-18344,-1760,-26612,3436,14434,-3859
31759,-32768,6416,32767,-11819,-4645,-7424
31781,-7272,-8688,-20740,-3109,25521,-8101
31803,-32768,-13696,-3996,5297,16607,-3297
31825,-16724,10888,-9660,-448,20491,3144
31847,-22900,8016,-3228,-2505,14413,2081
31869,-14872,3220,512,-1929,11311,-1868
31891,-15776,3904,-832,2075,9367,-1518
31913,-16516,2868,-544,6027,6604,-2080
31935,-16080,1360,328,4503,6085,-747
31957,-17624,2088,-320,4300,5420,529
31979,-16544,4192,352,2416,5007,396
32001,-14752,5432,128,3608,5232,-334
32023,-14808,4972,-380,4069,5749,-1076
32045,-15036,4592,-324,4134,6728,-798
32067,-15652,4388,-896,2619,7364,-1083
32089,-15824,3532,-932,176,7825,-792
32111,-15656,4168,-1928,-1133,8355,-946
32133,-17020,3792,-3224,-4801,9295,-2011
32155,-16416,3728,-2988,-6457,10905,-3467
32177,-17348,4196,-3308,-5915,12773,-3359
32199,-18080,3988,-2936,-3231,13042,-2264
32221,-19080,2244,-2604,-2517,12561,-3307
32243,-18516,2168,-2824,-1477,13157,-2391
32265,-20004,2608,-3316,-1095,14611,-1999
32287,-19836,2704,-3456,-218,15277,-1977
32309,-19468,3088,-4092,541,15746,-2155
32331,-20856,3824,-3816,1896,15950,-2357
32353,-23196,2452,-1876,4122,16170,-2010
32375,-24944,3524,588,7683,15322,-2461
32397,-25632,-364,4308,13489,14430,-1739
32419,-24404,3084,3432,22165,17799,-1181
32441,-25972,5784,-8104,23790,19570,706
32463,-23504,10884,-2712,5332,14579,729
32485,-20700,10164,-9152,14258,18825,-931
32507,-21724,10312,-2968,2761,14890,-4325
32529,-21112,4928,10300,-15140,361,717
32551,-1208,7696,12996,-7132,-4499,1182
32573,-7312,1468,3316,-2582,-10055,-1678
32595,-8732,2476,-876,-4863,-16321,821
32617,-9096,4240,1880,-7677,-21498,3352
32639,-9844,5044,2204,-8510,-26228,3247
32661,-12952,3100,-624,-9729,-30057,2562
32683,-16012,2432,-2136,-10280,-32768,2674
32705,-19168,3780,-3336,-10194,-32768,2415
32727,-21660,3684,-4396,-9086,-32768,2743
32749,-24628,2612,-3824,-8154,-32768,2280
32771,-28008,1656,-4220,-6875,-32768,1669
32793,-30700,2940,-6036,-2968,-32768,2067
32815,-32768,1424,-8508,1968,-32768,3001
32837,-32768,1288,-12900,6002,-32768,3394
32859,-30160,2156,-21996,6217,-30525,4201
32881,-20448,3672,-27376,4235,-24924,3857
32903,-12272,-3636,-31588,13360,-12914,4879
32925,-11604,-3940,-30356,10634,2331,1911
32947,-15272,-2260,-27660,-546,12918,-3100
32969,-20068,-588,-23820,-4675,21004,-2659
32991,-27448,-5604,32767,-10563,-3851,-4859
33013,-12744,-21872,-32768,-11057,21855,-9414
33035,-24560,6796,7472,15097,15542,7019
33057,-25928,17592,-21496,3374,21897,4480
33079,-20512,-1972,392,-4436,12345,-4400
33101,-11920,7508,-1312,1527,12500,69
33123,-17144,4632,-1700,5212,9791,-2698
33145,-17564,2384,-936,2564,7624,-2902
33167,-17372,2048,-732,117,7013,-1442
33189,-16372,3344,-232,-210,6427,-1042
33211,-15060,4024,-924,-2149,6682,-1468
33233,-15532,4004,-1416,-5591,7315,-1527
33255,-15708,3464,-1764,-7614,8501,-2372
33277,-16008,2992,-1376,-8643,10085,-3145
33299,-16384,2460,-1792,-7925,10853,-3322
33321,-17376,2812,-1700,-5368,10970,-2892
33343,-17536,3340,-1984,-3466,9973,-3500
33365,-18596,2716,-2792,-1311,9388,-2918
33387,-18492,2160,-2924,202,9107,-3020
33409,-19232,832,-2452,917,9689,-2846
33431,-19012,1380,-2412,942,10766,-3007
33453,-20396,600,-2648,73,12214,-2685
33475,-19792,1100,-2928,-266,13633,-2870
33497,-19544,1612,-2688,-664,15507,-3292
33519,-19836,4216,-2496,152,16797,-3232
33541,-20440,4336,-1900,3431,17224,-3039
33563,-24296,2180,1736,7727,17696,-2415
33585,-21468,3104,2348,14410,16492,-3334
33607,-25560,828,796,22205,19605,-2612
33629,-29444,6256,-4008,13976,24723,-2578
33651,-26708,8076,-1924,7642,9199,-718
33673,-21240,12364,-8732,19333,20580,-2795
33695,-17460,9388,-1900,3775,18295,-13444
33717,-25304,2112,5232,-16730,5033,2417
33739,-3736,8064,14224,-10490,-1966,3605
33761,-7648,2072,5580,-9065,-8489,2117
33783,-8352,3704,1480,-9823,-15194,4785
33805,-9304,5292,3380,-12373,-22011,5242
33827,-11652,4180,2924,-12336,-27432,4852
33849,-14812,3560,728,-11580,-32768,4647
33871,-17572,2640,-1640,-10580,-32768,4696
33893,-20424,4204,-2532,-9118,-32768,4965
33915,-24144,4776,-3580,-8872,-32768,5735
33937,-29328,5832,-6264,-10529,-32768,4992
33959,-32768,3864,-8056,-7792,-32768,4570
33981,-32768,4312,-14644,-2641,-32768,6951
34003,-32768,4616,-19300,2286,-32768,8674
34025,-31976,-3540,-20780,7610,-32768,4328
34047,-24260,-5752,-28332,9143,-29368,5777
34069,-13764,3832,-32768,10661,-16109,6433
34091,-7780,-9432,-32768,18653,-4710,-1097
34113,-11196,-5400,-27884,5370,10352,-137
34135,-18980,52,-25096,-3964,20014,-4462
34157,-32132,1156,21720,-10116,10504,-5005
34179,-5444,-8836,19532,-8223,16935,-8044
34201,-32768,-17352,-32768,-2112,24434,550
34223,-17960,13392,-10244,10029,20366,-1062
34245,-26676,11468,-7852,-1554,15190,641
34267,-16072,1872,-188,-1160,12764,-2985
34289,-15224,3856,-716,-1245,9525,-2465
