Timestamp,Ax,Ay,Az,Gx,Gy,Gz,Label
1861.0,-21268.0,528.0,5332.0,138.0,8378.0,-3392.0,0
1883.0,-9692.0,5360.0,5932.0,1051.0,3631.0,1407.0,0
1905.0,-8652.0,2820.0,5424.0,-3632.0,-2896.0,975.0,0
1927.0,-8380.0,1196.0,3524.0,-4433.0,-8386.0,1368.0,0
1949.0,-8800.0,2076.0,2696.0,-5066.0,-13338.0,2250.0,0
1971.0,-10728.0,2000.0,2344.0,-5165.0,-18558.0,2362.0,0
1993.0,-12768.0,364.0,656.0,-6445.0,-22792.0,2706.0,0
2015.0,-15788.0,868.0,-40.0,-8376.0,-25990.0,2976.0,0
2037.0,-18552.0,1336.0,-1964.0,-7838.0,-28564.0,2865.0,0
2059.0,-20000.0,2352.0,-3880.0,-6665.0,-30036.0,3496.0,0
2081.0,-22336.0,2200.0,-4820.0,-8383.0,-30775.0,2976.0,0
2103.0,-24016.0,1880.0,-4680.0,-8292.0,-31028.0,3029.0,0
2125.0,-24828.0,2136.0,-4528.0,-7838.0,-30868.0,1690.0,0
2147.0,-25016.0,1672.0,-4828.0,-7047.0,-29722.0,834.0,0
2169.0,-25816.0,2220.0,-5752.0,-2444.0,-28084.0,1000.0,0
2191.0,-24740.0,1972.0,-8476.0,-449.0,-24880.0,816.0,0
2213.0,-23484.0,944.0,-10788.0,1284.0,-22237.0,932.0,0
2235.0,-22128.0,-1720.0,-18704.0,4029.0,-19052.0,3253.0,0
2257.0,-17540.0,80.0,-17928.0,2229.0,-15803.0,2957.0,0
2279.0,-13588.0,-2056.0,-15120.0,2949.0,-9753.0,803.0,0
2301.0,-13568.0,-1924.0,-15452.0,4469.0,-2162.0,-706.0,0
2323.0,-15448.0,-1624.0,-13424.0,4911.0,4767.0,-392.0,0
2345.0,-17716.0,720.0,-12760.0,8092.0,9351.0,621.0,0
2367.0,-23172.0,-392.0,9164.0,4440.0,5689.0,-1715.0,0
2389.0,-12644.0,-3712.0,18404.0,-1196.0,8464.0,-1041.0,0
2411.0,-18184.0,-3032.0,-5328.0,2166.0,12012.0,-1263.0,0
2433.0,-18996.0,728.0,-1684.0,3485.0,11273.0,1232.0,0
2455.0,-22584.0,8952.0,-5840.0,-1709.0,10683.0,2593.0,0
2477.0,-20112.0,1724.0,3256.0,-6766.0,8914.0,615.0,0
2499.0,-13784.0,1244.0,864.0,-3125.0,9976.0,489.0,0
2521.0,-17268.0,664.0,-124.0,-290.0,8952.0,751.0,0
2543.0,-16880.0,1132.0,-16.0,2347.0,8262.0,1740.0,0
2565.0,-16884.0,2404.0,-68.0,1269.0,7418.0,2479.0,0
2587.0,-16080.0,3812.0,-100.0,-2329.0,5996.0,629.0,0
2609.0,-15884.0,3272.0,-824.0,-4007.0,5969.0,81.0,0
2631.0,-16236.0,2996.0,-1224.0,-5951.0,6231.0,-37.0,0
2653.0,-16392.0,2672.0,-692.0,-6729.0,6328.0,-419.0,0
2675.0,-16244.0,2004.0,-452.0,-5155.0,6001.0,-630.0,0
2697.0,-15940.0,2544.0,-180.0,-2364.0,6248.0,-306.0,0
2719.0,-15940.0,3072.0,-1020.0,-298.0,6782.0,54.0,0
2741.0,-16168.0,3060.0,-1756.0,175.0,7323.0,-98.0,0
2763.0,-16200.0,2992.0,-1928.0,353.0,7718.0,-232.0,0
2785.0,-16684.0,2752.0,-2484.0,187.0,7920.0,-435.0,0
2807.0,-16852.0,2120.0,-3004.0,-14.0,7686.0,-881.0,0
2829.0,-16788.0,3760.0,-3120.0,583.0,7599.0,-988.0,0
2851.0,-17504.0,2984.0,-3368.0,918.0,7529.0,-1285.0,0
2873.0,-17912.0,3096.0,-3452.0,2002.0,7407.0,-730.0,0
2895.0,-18672.0,1748.0,-2548.0,2467.0,7439.0,-982.0,0
2917.0,-18044.0,432.0,-3432.0,2074.0,8496.0,-620.0,0
2939.0,-17572.0,1136.0,-3824.0,1499.0,9617.0,-504.0,0
2961.0,-17176.0,2368.0,-4248.0,-47.0,11017.0,-1216.0,0
2983.0,-17852.0,4008.0,-4064.0,-373.0,12298.0,-1296.0,0
3005.0,-18548.0,4188.0,-4596.0,630.0,13106.0,-1445.0,0
3027.0,-18684.0,3596.0,-4900.0,3221.0,12824.0,-1266.0,0
3049.0,-19656.0,1924.0,-4032.0,5284.0,13384.0,-965.0,0
3071.0,-21404.0,3100.0,-2524.0,6671.0,13617.0,-1841.0,0
3093.0,-22836.0,1088.0,8.0,10240.0,14387.0,-808.0,0
3115.0,-25956.0,1532.0,1656.0,15175.0,15792.0,-1290.0,0
3137.0,-23984.0,4728.0,-2408.0,20512.0,20444.0,-256.0,0
3159.0,-26220.0,2948.0,-7588.0,14198.0,21014.0,-1926.0,0
3181.0,-26656.0,8620.0,1280.0,1649.0,10801.0,1023.0,0
3203.0,-19480.0,7260.0,-5040.0,13410.0,15215.0,-2415.0,0
3225.0,-8244.0,3252.0,-12888.0,5840.0,21697.0,-9221.0,0
3247.0,-16056.0,1628.0,2188.0,-2640.0,1741.0,3733.0,0
3269.0,-5412.0,6376.0,6784.0,-991.0,-3513.0,2987.0,0
3291.0,-4316.0,1268.0,4808.0,-1245.0,-9536.0,2208.0,0
3313.0,-6196.0,1488.0,-1448.0,-2371.0,-14019.0,3649.0,0
3335.0,-7952.0,3072.0,760.0,-8894.0,-19623.0,4809.0,0
3357.0,-10568.0,1692.0,-96.0,-11547.0,-24468.0,4023.0,0
3379.0,-13056.0,1112.0,-1340.0,-14164.0,-28751.0,3377.0,0
3401.0,-16240.0,1044.0,-2576.0,-14663.0,-32336.0,2187.0,0
3423.0,-19816.0,564.0,-3516.0,-13642.0,-32768.0,1324.0,0
3445.0,-22528.0,180.0,-4844.0,-8836.0,-32768.0,111.0,0
3467.0,-24496.0,1020.0,-6904.0,-5116.0,-32768.0,859.0,0
3489.0,-28152.0,4308.0,-9928.0,-5841.0,-32768.0,1389.0,0
3511.0,-29024.0,4908.0,-8944.0,-8288.0,-32768.0,1216.0,0
3533.0,-27532.0,4652.0,-10540.0,-6055.0,-32768.0,972.0,0
3555.0,-27856.0,3648.0,-11792.0,-1100.0,-32189.0,1877.0,0
3577.0,-25924.0,1016.0,-13496.0,1273.0,-28537.0,2040.0,0
3599.0,-22660.0,-480.0,-19108.0,2867.0,-23876.0,3527.0,0
3621.0,-17212.0,1968.0,-21336.0,1244.0,-17073.0,4573.0,0
3643.0,-12428.0,-308.0,-21108.0,2743.0,-9257.0,2345.0,0
3665.0,-12308.0,-3104.0,-20172.0,3507.0,1263.0,1038.0,0
3687.0,-14896.0,-2048.0,-17484.0,3443.0,8719.0,-287.0,0
3709.0,-17092.0,456.0,-13976.0,-23.0,13933.0,-682.0,0
3731.0,-23692.0,1032.0,2740.0,-1678.0,13865.0,-970.0,0
3753.0,-26696.0,-2220.0,32767.0,-12487.0,-2114.0,-1990.0,0
3775.0,-12548.0,-6692.0,-13712.0,7371.0,13487.0,-2342.0,0
3797.0,-29612.0,1172.0,1468.0,7135.0,9523.0,2588.0,0
3819.0,-19212.0,22620.0,-14884.0,2845.0,16049.0,6710.0,0
3841.0,-23136.0,4240.0,692.0,-4195.0,8917.0,-1096.0,0
3863.0,-15796.0,164.0,-200.0,-4745.0,10731.0,-974.0,0
3885.0,-16468.0,1560.0,-300.0,-749.0,9957.0,123.0,0
3907.0,-17376.0,2296.0,-624.0,728.0,7890.0,364.0,0
3929.0,-17232.0,2116.0,-260.0,1486.0,6261.0,1094.0,0
3951.0,-16456.0,3332.0,24.0,367.0,4879.0,165.0,0
3973.0,-14976.0,4324.0,8.0,-423.0,4540.0,-530.0,0
3995.0,-15952.0,3188.0,-608.0,-833.0,4735.0,-683.0,0
4017.0,-15692.0,3348.0,-708.0,-5412.0,5460.0,-727.0,0
4039.0,-15356.0,3220.0,-808.0,-9271.0,6858.0,-843.0,0
4061.0,-15968.0,2744.0,-300.0,-8372.0,8103.0,-1105.0,0
4083.0,-16440.0,2348.0,-612.0,-5781.0,8563.0,-1045.0,0
4105.0,-16104.0,2980.0,-1256.0,-2470.0,9183.0,-164.0,0
4127.0,-16056.0,3328.0,-2000.0,-688.0,9761.0,-4.0,0
4149.0,-16428.0,3276.0,-2336.0,341.0,9815.0,-182.0,0
4171.0,-16828.0,2956.0,-2904.0,-4.0,9649.0,-571.0,0
4193.0,-16796.0,2656.0,-3196.0,69.0,9649.0,-1014.0,0
4215.0,-18340.0,2432.0,-3916.0,699.0,9147.0,-1189.0,0
4237.0,-18892.0,2260.0,-4060.0,2047.0,8517.0,-952.0,0
4259.0,-18636.0,1176.0,-3704.0,2059.0,8451.0,-681.0,0
4281.0,-19100.0,1472.0,-3812.0,1161.0,9804.0,-651.0,0
4303.0,-18248.0,2444.0,-4052.0,-565.0,11433.0,-1050.0,0
4325.0,-18396.0,3768.0,-4000.0,-375.0,12730.0,-1417.0,0
4347.0,-19220.0,4556.0,-3856.0,974.0,14343.0,-1673.0,0
4369.0,-19912.0,4456.0,-3340.0,3584.0,15074.0,-1540.0,0
4391.0,-21492.0,2876.0,-2428.0,5855.0,16033.0,-1260.0,0
4413.0,-24552.0,4008.0,392.0,8221.0,16188.0,-1688.0,0
4435.0,-26028.0,704.0,4012.0,12468.0,16028.0,-1193.0,0
4457.0,-24616.0,252.0,3904.0,17603.0,16279.0,-2498.0,0
4479.0,-27116.0,6068.0,-8504.0,18406.0,24710.0,-1184.0,0
4501.0,-25420.0,5524.0,5288.0,8204.0,20256.0,-4462.0,0
4523.0,-18828.0,9168.0,-1876.0,8597.0,10815.0,-4909.0,0
4545.0,-13092.0,4996.0,-20144.0,8436.0,22071.0,-5525.0,0
4567.0,-30296.0,7656.0,-5296.0,-6947.0,2899.0,-557.0,0
4589.0,-9544.0,9984.0,11928.0,-7715.0,-7124.0,2217.0,0
4611.0,-4568.0,3316.0,10072.0,-13910.0,-12370.0,-2454.0,0
4633.0,-6356.0,1908.0,3620.0,-7345.0,-18039.0,-914.0,0
4655.0,-10092.0,3408.0,2260.0,-7755.0,-24768.0,1186.0,0
4677.0,-12836.0,4564.0,1792.0,-8645.0,-30698.0,2152.0,0
4699.0,-16516.0,5076.0,520.0,-9616.0,-32768.0,2665.0,0
4721.0,-21552.0,3616.0,-1668.0,-12252.0,-32768.0,2585.0,0
4743.0,-26504.0,2844.0,-3112.0,-13287.0,-32768.0,1960.0,0
4765.0,-28776.0,1776.0,-5212.0,-9029.0,-32768.0,1947.0,0
4787.0,-31608.0,2376.0,-11320.0,-3428.0,-32768.0,2565.0,0
4809.0,-32768.0,2744.0,-13748.0,-4765.0,-32768.0,2878.0,0
4831.0,-32368.0,4152.0,-17876.0,-4764.0,-32768.0,2966.0,0
4853.0,-28740.0,3480.0,-19800.0,-6826.0,-32768.0,546.0,0
4875.0,-23640.0,1728.0,-19456.0,-4164.0,-29139.0,736.0,0
4897.0,-20656.0,-1508.0,-20492.0,1368.0,-24825.0,1191.0,0
4919.0,-15612.0,-2552.0,-24664.0,8988.0,-17260.0,3366.0,0
4941.0,-10572.0,-1204.0,-24304.0,9183.0,-8751.0,2619.0,0
4963.0,-11388.0,648.0,-21764.0,7669.0,674.0,323.0,0
4985.0,-14072.0,-1488.0,-15908.0,5390.0,7845.0,-745.0,0
5007.0,-17136.0,-936.0,-10116.0,3396.0,11971.0,851.0,0
5029.0,-18624.0,2332.0,-4972.0,-1401.0,12832.0,1423.0,0
5051.0,-19288.0,1144.0,-5136.0,-4233.0,11727.0,837.0,0
5073.0,-25252.0,6268.0,30536.0,-7253.0,1304.0,-224.0,0
5095.0,-10216.0,-1088.0,20752.0,-691.0,6823.0,-1034.0,0
5117.0,-28260.0,-11272.0,-13428.0,7273.0,7602.0,584.0,0
5139.0,-13044.0,4784.0,5284.0,5035.0,10808.0,991.0,0
5161.0,-18144.0,1736.0,2524.0,3257.0,12784.0,367.0,0
5183.0,-19468.0,7576.0,-5264.0,-2539.0,14014.0,3125.0,0
5205.0,-16060.0,840.0,-232.0,-668.0,11542.0,-2049.0,0
5227.0,-18024.0,1980.0,-508.0,3301.0,9549.0,-130.0,0
5249.0,-16808.0,3336.0,564.0,2817.0,7206.0,-944.0,0
5271.0,-16912.0,2388.0,1088.0,1801.0,6736.0,-24.0,0
5293.0,-15036.0,4492.0,1096.0,2641.0,6941.0,921.0,0
5315.0,-15232.0,5380.0,816.0,381.0,6669.0,-429.0,0
5337.0,-15008.0,3804.0,44.0,-1401.0,6662.0,-1285.0,0
5359.0,-15668.0,2996.0,-288.0,-2301.0,7353.0,-588.0,0
5381.0,-15836.0,3020.0,-640.0,-2981.0,8317.0,-33.0,0
5403.0,-16032.0,3588.0,-636.0,-2484.0,9179.0,-118.0,0
5425.0,-15668.0,3404.0,-688.0,-2691.0,10202.0,-469.0,0
5447.0,-16012.0,4052.0,-1536.0,-2867.0,10971.0,-796.0,0
5469.0,-16128.0,4184.0,-1924.0,-3182.0,11440.0,-1001.0,0
5491.0,-16340.0,4324.0,-2580.0,-2658.0,11168.0,-1014.0,0
5513.0,-16764.0,3772.0,-3256.0,-2622.0,10802.0,-1096.0,0
5535.0,-18140.0,2608.0,-3720.0,-1280.0,9860.0,-1607.0,0
5557.0,-18612.0,2240.0,-3892.0,486.0,8494.0,-1154.0,0
5579.0,-18820.0,1276.0,-3704.0,1883.0,8180.0,-829.0,0
5601.0,-18152.0,2444.0,-3704.0,1758.0,8889.0,-512.0,0
5623.0,-18632.0,3424.0,-3440.0,1021.0,10479.0,-1018.0,0
5645.0,-18284.0,2960.0,-3644.0,858.0,12114.0,-1434.0,0
5667.0,-18544.0,3576.0,-3780.0,1145.0,13436.0,-1789.0,0
5689.0,-19840.0,3776.0,-3800.0,1712.0,14285.0,-1841.0,0
5711.0,-22928.0,3284.0,-2496.0,2517.0,14756.0,-2210.0,0
5733.0,-21200.0,4440.0,-1360.0,7022.0,13911.0,-2262.0,0
5755.0,-23580.0,2780.0,2384.0,9470.0,14886.0,-2155.0,0
5777.0,-24820.0,-316.0,3812.0,13665.0,15532.0,-1740.0,0
5799.0,-22752.0,6136.0,-3292.0,19778.0,20164.0,443.0,0
5821.0,-29124.0,6308.0,-820.0,12451.0,23141.0,-772.0,0
5843.0,-25356.0,8948.0,11344.0,-408.0,11662.0,-4117.0,0
5865.0,-12228.0,10536.0,-2420.0,20236.0,15927.0,-5295.0,0
5887.0,-9444.0,7672.0,-14588.0,8627.0,20410.0,-7183.0,0
5909.0,-23136.0,2956.0,4804.0,-7842.0,4340.0,5274.0,0
5931.0,-6476.0,11128.0,11760.0,-3587.0,-5825.0,5661.0,0
5953.0,-6108.0,2180.0,9336.0,-7814.0,-11559.0,-88.0,0
5975.0,-6156.0,1072.0,2160.0,-4015.0,-17871.0,1107.0,0
5997.0,-9556.0,3764.0,332.0,-6488.0,-23458.0,4186.0,0
6019.0,-11352.0,5892.0,1724.0,-11544.0,-29627.0,3454.0,0
6041.0,-14616.0,3444.0,-196.0,-14561.0,-32768.0,3062.0,0
6063.0,-17824.0,2744.0,-1688.0,-18649.0,-32768.0,1637.0,0
6085.0,-22048.0,484.0,-3192.0,-15595.0,-32768.0,483.0,0
6107.0,-26312.0,388.0,-4644.0,-6716.0,-32768.0,1096.0,0
6129.0,-30016.0,2928.0,-8152.0,-4447.0,-32768.0,2377.0,0
6151.0,-32768.0,3316.0,-14404.0,-6184.0,-32768.0,2162.0,0
6173.0,-32768.0,1928.0,-18564.0,-8759.0,-32768.0,-112.0,0
6195.0,-32768.0,136.0,-22152.0,-3695.0,-32768.0,-1178.0,0
6217.0,-24536.0,2624.0,-25876.0,-1690.0,-29121.0,-1976.0,0
6239.0,-16532.0,3244.0,-31224.0,5448.0,-22142.0,-2284.0,0
6261.0,-11276.0,-4776.0,-30384.0,15069.0,-10521.0,1838.0,0
6283.0,-10868.0,-1952.0,-25440.0,11335.0,2766.0,2346.0,0
6305.0,-16168.0,2068.0,-21028.0,3378.0,11053.0,-2915.0,0
6327.0,-19240.0,44.0,-14848.0,299.0,16097.0,-3179.0,0
6349.0,-31264.0,10168.0,32767.0,3408.0,6235.0,-1601.0,0
6371.0,-12504.0,-2844.0,9596.0,-8168.0,12621.0,-262.0,0
6393.0,-26840.0,-10648.0,-28000.0,1449.0,20592.0,-2060.0,0
6415.0,-18592.0,9404.0,1468.0,2548.0,12730.0,1539.0,0
6437.0,-21060.0,11660.0,-7988.0,-199.0,14400.0,588.0,0
6459.0,-19424.0,-1272.0,72.0,-5525.0,12244.0,-342.0,0
6481.0,-12524.0,6320.0,-1204.0,-3333.0,11609.0,884.0,0
6503.0,-18188.0,2548.0,-1140.0,-2805.0,9706.0,-2065.0,0
6525.0,-16760.0,3332.0,-356.0,12.0,7647.0,-1798.0,0
6547.0,-16764.0,2176.0,-208.0,-594.0,6963.0,-958.0,0
6569.0,-16364.0,2944.0,660.0,-1504.0,6999.0,-1114.0,0
6591.0,-15308.0,2308.0,252.0,-2936.0,7457.0,-1455.0,0
6613.0,-16036.0,2660.0,-248.0,-4233.0,7285.0,-1871.0,0
6635.0,-15912.0,2832.0,-404.0,-5692.0,7438.0,-1565.0,0
6657.0,-15964.0,1936.0,-2228.0,-6792.0,7941.0,-1915.0,0
6679.0,-16208.0,1924.0,-2164.0,-8690.0,8559.0,-1846.0,0
6701.0,-16648.0,1308.0,-2060.0,-6914.0,8843.0,-1786.0,0
6723.0,-16948.0,1856.0,-2120.0,-3124.0,8407.0,-1298.0,0
6745.0,-16648.0,1804.0,-2948.0,-114.0,8130.0,-1257.0,0
6767.0,-16900.0,2100.0,-2536.0,2029.0,8052.0,-838.0,0
6789.0,-16944.0,2100.0,-2664.0,2942.0,8227.0,-1115.0,0
6811.0,-17568.0,1928.0,-3192.0,3164.0,8500.0,-1517.0,0
6833.0,-17680.0,2668.0,-2712.0,2581.0,9003.0,-1915.0,0
6855.0,-19508.0,2912.0,-2804.0,3131.0,10449.0,-1724.0,0
6877.0,-20072.0,1044.0,-3576.0,3345.0,12406.0,-3001.0,0
6899.0,-20460.0,580.0,-3572.0,2840.0,14524.0,-3123.0,0
6921.0,-21484.0,1956.0,-3512.0,2885.0,15700.0,-3186.0,0
6943.0,-21744.0,1244.0,-3452.0,4178.0,15361.0,-3413.0,0
6965.0,-25712.0,580.0,-1004.0,5351.0,15781.0,-2981.0,0
6987.0,-20664.0,4180.0,1048.0,9962.0,14921.0,-3301.0,0
7009.0,-25004.0,2676.0,4948.0,14203.0,15791.0,-3565.0,0
7031.0,-22740.0,4380.0,2756.0,20277.0,16024.0,-5383.0,0
7053.0,-30748.0,160.0,-3732.0,15310.0,14936.0,-6544.0,0
7075.0,-20672.0,6844.0,-5392.0,11421.0,15682.0,-3357.0,0
7097.0,-14828.0,11392.0,-5520.0,14509.0,20435.0,-2478.0,0
7119.0,-32192.0,3452.0,1804.0,-5246.0,15500.0,-1450.0,0
7141.0,-8976.0,10008.0,13320.0,-14072.0,3966.0,6250.0,0
7163.0,-7456.0,3372.0,9236.0,-16830.0,-2814.0,4707.0,0
7185.0,-6756.0,4340.0,3684.0,-11826.0,-10071.0,5025.0,0
7207.0,-7480.0,3088.0,2344.0,-12372.0,-18244.0,4215.0,0
7229.0,-10048.0,1284.0,2824.0,-12954.0,-25131.0,4260.0,0
7251.0,-12788.0,500.0,20.0,-11175.0,-30321.0,4189.0,0
7273.0,-17364.0,-1012.0,-1596.0,-10428.0,-32768.0,4186.0,0
7295.0,-19724.0,-1836.0,-4524.0,-9786.0,-32768.0,3919.0,0
7317.0,-24892.0,-32.0,-5752.0,-6735.0,-32768.0,3790.0,0
7339.0,-26692.0,-588.0,-7032.0,-8237.0,-32768.0,3119.0,0
7361.0,-29292.0,1416.0,-8856.0,-9687.0,-32768.0,2957.0,0
7383.0,-30976.0,1372.0,-9412.0,-10590.0,-32768.0,1536.0,0
7405.0,-29744.0,388.0,-8748.0,-7389.0,-32768.0,697.0,0
7427.0,-29848.0,-1140.0,-11356.0,-1760.0,-32768.0,475.0,0
7449.0,-24740.0,-2632.0,-15888.0,2224.0,-29574.0,-604.0,0
7471.0,-19632.0,1372.0,-21512.0,5227.0,-21595.0,1230.0,0
7493.0,-14264.0,-320.0,-25540.0,8673.0,-15844.0,902.0,0
7515.0,-10776.0,-4420.0,-23456.0,10311.0,-5773.0,1960.0,0
7537.0,-13604.0,-3668.0,-21960.0,9383.0,4761.0,-397.0,0
7559.0,-15892.0,-952.0,-18860.0,1959.0,11557.0,-2410.0,0
7581.0,-17584.0,-1688.0,-16028.0,-235.0,16905.0,-2285.0,0
7603.0,-32648.0,-2076.0,24884.0,3475.0,7547.0,-329.0,0
7625.0,-10924.0,2632.0,20068.0,6113.0,10087.0,-1777.0,0
7647.0,-32672.0,-5700.0,-21396.0,9450.0,15234.0,3303.0,0
7669.0,-16568.0,8004.0,-7864.0,8528.0,15794.0,2626.0,0
7691.0,-22272.0,17412.0,-7872.0,2281.0,13971.0,3800.0,0
7713.0,-20164.0,748.0,1332.0,643.0,10508.0,-2219.0,0
7735.0,-14920.0,3160.0,-492.0,2085.0,10141.0,646.0,0
7757.0,-16684.0,4056.0,-616.0,1934.0,7988.0,422.0,0
7779.0,-16768.0,3496.0,-296.0,4415.0,5632.0,-731.0,0
7801.0,-16072.0,3960.0,992.0,5927.0,4359.0,-27.0,0
7823.0,-15308.0,4160.0,648.0,4955.0,3661.0,-882.0,0
7845.0,-15848.0,3260.0,-28.0,5663.0,3940.0,-507.0,0
7867.0,-15640.0,4376.0,-300.0,4532.0,4336.0,-537.0,0
7889.0,-16056.0,3396.0,-308.0,3557.0,4073.0,-1193.0,0
7911.0,-15716.0,3920.0,-348.0,3911.0,4639.0,-898.0,0
7933.0,-15692.0,4232.0,-864.0,4071.0,5264.0,-340.0,0
7955.0,-16308.0,3944.0,-832.0,4692.0,5117.0,-1255.0,0
7977.0,-15896.0,3764.0,-1580.0,2823.0,5469.0,-1586.0,0
7999.0,-15920.0,3524.0,-1648.0,1620.0,6177.0,-1842.0,0
8021.0,-16112.0,3132.0,-2004.0,849.0,6843.0,-2179.0,0
8043.0,-16552.0,3560.0,-2376.0,595.0,7389.0,-2295.0,0
8065.0,-17216.0,2432.0,-2764.0,709.0,7475.0,-2389.0,0
8087.0,-17928.0,2972.0,-2504.0,695.0,8106.0,-2388.0,0
8109.0,-17732.0,2476.0,-2868.0,-2043.0,9731.0,-2760.0,0
8131.0,-17836.0,3244.0,-3108.0,-5146.0,12334.0,-2974.0,0
8153.0,-17916.0,5564.0,-3772.0,-8954.0,15963.0,-3846.0,0
8175.0,-18988.0,2504.0,-3568.0,-12898.0,19102.0,-6554.0,0
8197.0,-21304.0,3368.0,-3472.0,-10327.0,19957.0,-7011.0,0
8219.0,-22576.0,3168.0,-3008.0,-5777.0,17915.0,-6193.0,0
8241.0,-22924.0,1548.0,-712.0,-164.0,16160.0,-5196.0,0
8263.0,-22248.0,5128.0,328.0,3829.0,14890.0,-5184.0,0
8285.0,-22880.0,3336.0,4496.0,5869.0,17464.0,-4884.0,0
8307.0,-24992.0,3864.0,1660.0,9093.0,19242.0,-4911.0,0
8329.0,-25412.0,13340.0,-5196.0,9369.0,22654.0,-2539.0,0
8351.0,-25896.0,1940.0,-728.0,5307.0,14419.0,-5630.0,0
8373.0,-23352.0,12344.0,-5412.0,17249.0,17897.0,-5256.0,0
8395.0,-18908.0,6128.0,-15360.0,-224.0,20383.0,-10995.0,0
8417.0,-25088.0,-2356.0,-700.0,-15065.0,12416.0,-5384.0,0
8439.0,-8588.0,9224.0,20244.0,-9454.0,-2127.0,4654.0,0
8461.0,-5192.0,4204.0,7304.0,-1343.0,-8107.0,-1577.0,0
8483.0,-6472.0,2864.0,2020.0,-4746.0,-15550.0,795.0,0
8505.0,-9580.0,4288.0,3276.0,-5290.0,-22891.0,3538.0,0
8527.0,-11232.0,4676.0,1072.0,-6696.0,-28362.0,4447.0,0
8549.0,-13724.0,5336.0,-380.0,-11345.0,-32768.0,4547.0,0
8571.0,-16932.0,2968.0,-1732.0,-11482.0,-32768.0,3584.0,0
8593.0,-21964.0,2476.0,-4168.0,-9511.0,-32768.0,4106.0,0
8615.0,-24472.0,3280.0,-5120.0,-9205.0,-32768.0,4644.0,0
8637.0,-28336.0,5924.0,-8536.0,-8522.0,-32768.0,4780.0,0
8659.0,-31664.0,6300.0,-9724.0,-9472.0,-32768.0,3844.0,0
8681.0,-31968.0,5196.0,-11116.0,-6344.0,-32768.0,2443.0,0
8703.0,-31140.0,4916.0,-13608.0,-74.0,-32768.0,3744.0,0
8725.0,-30144.0,3472.0,-13888.0,2117.0,-32768.0,5323.0,0
8747.0,-25816.0,-1804.0,-18564.0,6759.0,-31505.0,5560.0,0
8769.0,-19596.0,-3668.0,-28928.0,12663.0,-21119.0,8336.0,0
8791.0,-10492.0,-2276.0,-32392.0,7338.0,-6818.0,7609.0,0
8813.0,-10384.0,-328.0,-24640.0,3522.0,5091.0,1295.0,0
8835.0,-15492.0,-1456.0,-21332.0,-126.0,14341.0,-2625.0,0
8857.0,-20136.0,-976.0,-14764.0,-2740.0,18495.0,-1372.0,0
8879.0,-27796.0,4052.0,32767.0,-15428.0,56.0,-3247.0,0
8901.0,-10344.0,-20740.0,-26668.0,-8276.0,24562.0,-9605.0,0
8923.0,-32768.0,-3060.0,3288.0,12024.0,14480.0,-536.0,0
8945.0,-23608.0,29184.0,-21612.0,-2168.0,23573.0,7947.0,0
8967.0,-18396.0,-5124.0,1196.0,-5716.0,12721.0,-4798.0,0
8989.0,-15136.0,2632.0,-388.0,-3656.0,12383.0,227.0,0
9011.0,-15892.0,5532.0,-1128.0,1922.0,9660.0,-1290.0,0
9033.0,-17484.0,1780.0,-1020.0,2161.0,7371.0,-1234.0,0
9055.0,-16592.0,2144.0,-180.0,3378.0,5696.0,277.0,0
9077.0,-16680.0,3944.0,-24.0,4213.0,5138.0,884.0,0
9099.0,-14976.0,4748.0,-680.0,1938.0,4744.0,-390.0,0
9121.0,-14852.0,4400.0,-1724.0,-678.0,5823.0,-1078.0,0
9143.0,-15572.0,3216.0,-1244.0,-4335.0,7228.0,-1479.0,0
9165.0,-15664.0,3848.0,-1172.0,-4167.0,8893.0,-1900.0,0
9187.0,-16736.0,3024.0,-1704.0,-5398.0,9116.0,-2125.0,0
9209.0,-16776.0,3188.0,-1348.0,-4039.0,8871.0,-1882.0,0
9231.0,-16328.0,5120.0,-1652.0,-2446.0,8496.0,-1884.0,0
9253.0,-16124.0,3648.0,-2256.0,-2117.0,8918.0,-2063.0,0
9275.0,-17072.0,3392.0,-2552.0,-643.0,9498.0,-1877.0,0
9297.0,-17868.0,3984.0,-2616.0,1280.0,9462.0,-1531.0,0
9319.0,-18512.0,1708.0,-3376.0,2549.0,9715.0,-1529.0,0
9341.0,-18580.0,748.0,-3316.0,1627.0,10762.0,-2079.0,0
9363.0,-19576.0,1912.0,-3532.0,1391.0,12874.0,-1503.0,0
9385.0,-19984.0,2036.0,-3884.0,773.0,14361.0,-2110.0,0
9407.0,-20256.0,1668.0,-3504.0,27.0,15483.0,-2363.0,0
9429.0,-20916.0,2552.0,-3804.0,434.0,16210.0,-3120.0,0
9451.0,-20836.0,3632.0,-3068.0,1740.0,16324.0,-2776.0,0
9473.0,-24344.0,3952.0,-504.0,3150.0,16469.0,-3455.0,0
9495.0,-23472.0,3256.0,2532.0,9818.0,15490.0,-2700.0,0
9517.0,-27044.0,404.0,4544.0,18675.0,16484.0,-2664.0,0
9539.0,-22608.0,7340.0,-7116.0,24068.0,22737.0,-1275.0,0
9561.0,-28780.0,7332.0,2040.0,12782.0,18951.0,-1533.0,0
9583.0,-21216.0,9428.0,-1260.0,9968.0,10484.0,-4353.0,0
9605.0,-14916.0,5528.0,-14068.0,13007.0,22353.0,-10664.0,0
9627.0,-29692.0,5524.0,-9316.0,2565.0,13309.0,-4881.0,0
9649.0,-12616.0,5132.0,10940.0,-6232.0,-2118.0,4542.0,0
9671.0,-3548.0,6860.0,8068.0,-5611.0,-5573.0,1883.0,0
9693.0,-4480.0,724.0,1216.0,-5323.0,-10631.0,1481.0,0
9715.0,-6928.0,3076.0,476.0,-7213.0,-16400.0,4818.0,0
9737.0,-7880.0,3700.0,256.0,-9206.0,-22020.0,5795.0,0
9759.0,-10532.0,4096.0,548.0,-13717.0,-27183.0,5781.0,0
9781.0,-14060.0,2044.0,-1936.0,-15950.0,-32295.0,3933.0,0
9803.0,-16900.0,676.0,-1848.0,-13224.0,-32768.0,4016.0,0
9825.0,-20332.0,1060.0,-2728.0,-8563.0,-32768.0,4080.0,0
9847.0,-22920.0,2476.0,-4908.0,-7020.0,-32768.0,3618.0,0
9869.0,-27596.0,2636.0,-5300.0,-9265.0,-32768.0,3224.0,0
9891.0,-32320.0,3484.0,-8364.0,-8466.0,-32768.0,2911.0,0
9913.0,-32768.0,4740.0,-11160.0,-6562.0,-32768.0,3345.0,0
9935.0,-32268.0,4672.0,-14372.0,-4960.0,-32768.0,3160.0,0
9957.0,-29388.0,3472.0,-16712.0,-1391.0,-32768.0,2527.0,0
9979.0,-23940.0,-2548.0,-22196.0,5201.0,-28097.0,3250.0,0
10001.0,-16036.0,-3176.0,-32712.0,11903.0,-15682.0,6297.0,0
10023.0,-11468.0,2048.0,-30616.0,7739.0,-2563.0,4613.0,0
10045.0,-12516.0,-2892.0,-24940.0,4274.0,9329.0,-2757.0,0
10067.0,-19568.0,2724.0,-10872.0,1520.0,15060.0,-3911.0,0
10089.0,-22236.0,1280.0,32767.0,-12516.0,3984.0,-3851.0,0
10111.0,-19768.0,-14600.0,-18712.0,-10095.0,23289.0,-6286.0,0
10133.0,-31744.0,-7604.0,-480.0,7034.0,16945.0,-1792.0,0
10155.0,-18396.0,26916.0,-15064.0,1376.0,21540.0,8316.0,0
10177.0,-21008.0,-616.0,896.0,-6347.0,12133.0,-2753.0,0
10199.0,-15112.0,4036.0,-352.0,-4982.0,12638.0,-1150.0,0
10221.0,-17428.0,840.0,-1064.0,461.0,10065.0,-2478.0,0
10243.0,-16904.0,1668.0,-888.0,4709.0,7675.0,-1267.0,0
10265.0,-17516.0,608.0,-4.0,4764.0,5883.0,506.0,0
10287.0,-16708.0,3372.0,-464.0,4903.0,5774.0,1756.0,0
10309.0,-14868.0,4380.0,-360.0,-2367.0,5378.0,-699.0,0
10331.0,-14724.0,4260.0,-1676.0,-7789.0,6203.0,-2082.0,0
10353.0,-15692.0,3316.0,-624.0,-11045.0,7239.0,-2102.0,0
10375.0,-16316.0,2276.0,-492.0,-8872.0,7835.0,-2230.0,0
10397.0,-17200.0,2764.0,-1244.0,-4669.0,6362.0,-1690.0,0
10419.0,-16332.0,2988.0,-1424.0,-2487.0,5854.0,-1851.0,0
10441.0,-15668.0,2968.0,-1244.0,-1015.0,7203.0,-1986.0,0
10463.0,-15852.0,2716.0,-1276.0,-175.0,9124.0,-1612.0,0
10485.0,-16884.0,1192.0,-1972.0,-385.0,10611.0,-1711.0,0
10507.0,-17748.0,2064.0,-3120.0,468.0,11248.0,-1710.0,0
10529.0,-18352.0,2360.0,-3308.0,1356.0,11591.0,-2281.0,0
10551.0,-19052.0,1548.0,-2976.0,2142.0,11912.0,-2689.0,0
10573.0,-20800.0,2224.0,-2652.0,2189.0,12924.0,-2586.0,0
10595.0,-22236.0,2768.0,-4624.0,2124.0,13439.0,-3696.0,0
10617.0,-20456.0,1136.0,-4148.0,1521.0,13975.0,-3291.0,0
10639.0,-19948.0,2788.0,-3340.0,2574.0,15275.0,-3448.0,0
10661.0,-22196.0,3312.0,-1984.0,3099.0,16813.0,-3977.0,0
10683.0,-24588.0,5940.0,404.0,5676.0,17199.0,-4232.0,0
10705.0,-26768.0,3688.0,4404.0,11657.0,16632.0,-3332.0,0
10727.0,-25056.0,1332.0,5336.0,19900.0,13390.0,-3675.0,0
10749.0,-24484.0,1080.0,-6044.0,24255.0,11013.0,-4706.0,0
10771.0,-23720.0,8016.0,-6064.0,15501.0,18362.0,502.0,0
10793.0,-18868.0,10300.0,-5672.0,15114.0,22020.0,-3324.0,0
10815.0,-18476.0,6528.0,-4480.0,5254.0,15900.0,-11604.0,0
10837.0,-13612.0,4144.0,12412.0,-3193.0,5419.0,4696.0,0
10859.0,-5928.0,6564.0,7748.0,-3516.0,1267.0,3692.0,0
10881.0,-7052.0,3184.0,2476.0,-4813.0,-4857.0,6601.0,0
10903.0,-8204.0,3424.0,1836.0,-9722.0,-10705.0,7773.0,0
10925.0,-8868.0,4100.0,3344.0,-12919.0,-16703.0,8100.0,0
10947.0,-11280.0,-80.0,452.0,-11073.0,-22237.0,6786.0,0
10969.0,-13892.0,-628.0,188.0,-11110.0,-26779.0,7373.0,0
10991.0,-17292.0,184.0,172.0,-10202.0,-30440.0,6849.0,0
11013.0,-20348.0,-944.0,-1764.0,-7778.0,-32768.0,5479.0,0
11035.0,-22884.0,-348.0,-2832.0,-5442.0,-32768.0,5834.0,0
11057.0,-25468.0,1084.0,-2612.0,-7091.0,-32768.0,5102.0,0
11079.0,-29432.0,1520.0,-3088.0,-8548.0,-32768.0,3990.0,0
11101.0,-31800.0,2480.0,-4456.0,-6679.0,-32768.0,3954.0,0
11123.0,-32768.0,3016.0,-5580.0,-2754.0,-32768.0,4172.0,0
11145.0,-32768.0,1292.0,-8720.0,1531.0,-32768.0,4787.0,0
11167.0,-30012.0,-1840.0,-11736.0,2014.0,-32768.0,3970.0,0
11189.0,-23272.0,-2256.0,-18680.0,5796.0,-29297.0,5682.0,0
11211.0,-15076.0,-2624.0,-32188.0,5198.0,-19016.0,3972.0,0
11233.0,-7288.0,-1980.0,-29668.0,6135.0,-3511.0,5727.0,0
11255.0,-10464.0,-4820.0,-24612.0,2561.0,10002.0,-1139.0,0
11277.0,-16792.0,-1004.0,-17824.0,-7102.0,16534.0,-3580.0,0
11299.0,-19692.0,-744.0,-13272.0,-7130.0,19557.0,-2530.0,0
11321.0,-23936.0,3256.0,32767.0,-9050.0,571.0,-3285.0,0
11343.0,-11392.0,-14112.0,-32768.0,-2368.0,28788.0,-7408.0,0
11365.0,-32768.0,-824.0,100.0,9274.0,16318.0,-1183.0,0
11387.0,-22712.0,20384.0,-15424.0,320.0,20441.0,5336.0,0
11409.0,-22664.0,-5368.0,-392.0,-3228.0,12483.0,-2316.0,0
11431.0,-16264.0,4876.0,-1044.0,-1328.0,10967.0,2732.0,0
11453.0,-14808.0,4692.0,-436.0,-190.0,7795.0,-977.0,0
11475.0,-17284.0,2636.0,164.0,3160.0,5322.0,-1613.0,0
11497.0,-16388.0,3368.0,444.0,3433.0,4504.0,519.0,0
11519.0,-15512.0,3632.0,940.0,3110.0,4653.0,313.0,0
11541.0,-14764.0,4092.0,160.0,982.0,5601.0,-200.0,0
11563.0,-14748.0,5224.0,-472.0,-3953.0,6570.0,-947.0,0
11585.0,-15396.0,4112.0,-472.0,-6779.0,7642.0,-1746.0,0
11607.0,-15584.0,3724.0,-784.0,-6030.0,9164.0,-1951.0,0
11629.0,-16304.0,2048.0,-384.0,-5060.0,10334.0,-1937.0,0
11651.0,-16500.0,3584.0,-1240.0,-2467.0,10926.0,-1523.0,0
11673.0,-16960.0,2624.0,-1256.0,-1529.0,10927.0,-1672.0,0
11695.0,-16952.0,3220.0,-2316.0,-811.0,10788.0,-1656.0,0
11717.0,-17644.0,2600.0,-3312.0,-312.0,10152.0,-1330.0,0
11739.0,-18632.0,2840.0,-3296.0,266.0,9148.0,-1781.0,0
11761.0,-19228.0,3912.0,-3420.0,2031.0,8437.0,-1479.0,0
11783.0,-17908.0,2796.0,-3272.0,3310.0,8581.0,-1867.0,0
11805.0,-18096.0,1504.0,-3004.0,3693.0,10338.0,-2108.0,0
11827.0,-18588.0,2660.0,-2432.0,3096.0,12621.0,-2651.0,0
11849.0,-19924.0,1032.0,-3328.0,1542.0,14844.0,-3113.0,0
11871.0,-20544.0,2028.0,-3432.0,1970.0,15940.0,-2622.0,0
11893.0,-21176.0,2432.0,-2944.0,2720.0,16754.0,-3123.0,0
11915.0,-25484.0,3512.0,488.0,4230.0,17244.0,-3319.0,0
11937.0,-24388.0,3540.0,3292.0,10562.0,16987.0,-2847.0,0
11959.0,-26912.0,2296.0,5792.0,17233.0,16845.0,-3216.0,0
11981.0,-23496.0,4272.0,-3752.0,23958.0,21907.0,-2639.0,0
12003.0,-31588.0,3456.0,-1244.0,7655.0,19667.0,-2756.0,0
12025.0,-22352.0,7916.0,-6948.0,11761.0,17263.0,-3809.0,0
12047.0,-13256.0,9656.0,-10216.0,13331.0,23169.0,-8690.0,0
12069.0,-32768.0,-640.0,-12940.0,-9719.0,14582.0,-3296.0,0
12091.0,-7140.0,7592.0,18180.0,-7882.0,-1399.0,7291.0,0
12113.0,-4644.0,4916.0,8888.0,-7081.0,-4906.0,2639.0,0
12135.0,-5696.0,2820.0,1916.0,-5876.0,-11860.0,4303.0,0
12157.0,-8568.0,1420.0,1852.0,-7107.0,-19133.0,4672.0,0
12179.0,-10100.0,2472.0,1776.0,-7169.0,-25149.0,6209.0,0
12201.0,-13008.0,2268.0,-284.0,-9080.0,-30496.0,5875.0,0
12223.0,-16840.0,2272.0,-1572.0,-12825.0,-32768.0,5437.0,0
12245.0,-19732.0,2444.0,-1856.0,-12770.0,-32768.0,4958.0,0
12267.0,-23384.0,2616.0,-4204.0,-10912.0,-32768.0,4238.0,0
12289.0,-27032.0,3264.0,-4084.0,-12103.0,-32768.0,2958.0,0
12311.0,-29976.0,3152.0,-3020.0,-9400.0,-32768.0,2461.0,0
12333.0,-32768.0,3524.0,-7700.0,-2614.0,-32768.0,2843.0,0
12355.0,-32768.0,3972.0,-13996.0,507.0,-32768.0,4167.0,0
12377.0,-32336.0,2184.0,-17036.0,1663.0,-32768.0,4398.0,0
12399.0,-27084.0,-744.0,-22484.0,-3724.0,-30508.0,3058.0,0
12421.0,-18220.0,612.0,-32768.0,1338.0,-20794.0,3412.0,0
12443.0,-10068.0,-4252.0,-32608.0,3025.0,-9408.0,3682.0,0
12465.0,-10268.0,-5484.0,-26648.0,3964.0,3884.0,1332.0,0
12487.0,-16348.0,-52.0,-22132.0,-654.0,13244.0,-2068.0,0
12509.0,-19492.0,268.0,-16440.0,286.0,16700.0,-2392.0,0
12531.0,-28196.0,2920.0,26100.0,8531.0,7682.0,-3324.0,0
12553.0,-12116.0,-12420.0,4068.0,-472.0,16678.0,-108.0,0
12575.0,-32768.0,-10032.0,-16792.0,8388.0,18115.0,-856.0,0
12597.0,-18468.0,22096.0,-12748.0,6047.0,18003.0,8371.0,0
12619.0,-25816.0,-152.0,880.0,-4424.0,9571.0,-2268.0,0
12641.0,-16688.0,4008.0,-1528.0,-6427.0,11289.0,219.0,0
12663.0,-14204.0,2844.0,248.0,376.0,8133.0,-1430.0,0
12685.0,-17748.0,2160.0,-532.0,2776.0,6918.0,-1309.0,0
12707.0,-16960.0,3196.0,-536.0,5256.0,6063.0,349.0,0
12729.0,-16276.0,3112.0,508.0,6416.0,5246.0,1221.0,0
12751.0,-15756.0,3736.0,300.0,4713.0,5236.0,272.0,0
12773.0,-14960.0,4360.0,-180.0,2949.0,5467.0,-337.0,0
12795.0,-15456.0,5232.0,-708.0,1558.0,5555.0,-927.0,0
12817.0,-16064.0,3432.0,-1084.0,568.0,5257.0,-1376.0,0
12839.0,-16664.0,2776.0,-1256.0,770.0,5116.0,-1464.0,0
12861.0,-16372.0,3332.0,-1088.0,-25.0,5674.0,-1072.0,0
12883.0,-15636.0,3808.0,-1416.0,-1137.0,6794.0,-1288.0,0
12905.0,-15644.0,3980.0,-2064.0,-2745.0,8066.0,-1256.0,0
12927.0,-15892.0,3944.0,-2132.0,-5158.0,9623.0,-2205.0,0
12949.0,-16596.0,3336.0,-2604.0,-6087.0,11436.0,-2716.0,0
12971.0,-17332.0,3352.0,-3332.0,-6310.0,13316.0,-2922.0,0
12993.0,-18500.0,3288.0,-3636.0,-5053.0,14338.0,-2484.0,0
13015.0,-20568.0,1208.0,-3896.0,-4158.0,13410.0,-2869.0,0
13037.0,-19920.0,1740.0,-3276.0,-2952.0,13130.0,-2477.0,0
13059.0,-18908.0,2400.0,-3152.0,-1695.0,13705.0,-2706.0,0
13081.0,-19756.0,2408.0,-3432.0,-501.0,14826.0,-2476.0,0
13103.0,-20464.0,2636.0,-3828.0,-363.0,15436.0,-2660.0,0
13125.0,-20552.0,3544.0,-3428.0,1644.0,14932.0,-2558.0,0
13147.0,-23332.0,2988.0,-588.0,2978.0,14679.0,-3161.0,0
13169.0,-21728.0,3896.0,864.0,9119.0,13800.0,-2615.0,0
13191.0,-24316.0,16.0,4712.0,14407.0,15172.0,-2583.0,0
13213.0,-21396.0,8276.0,-3652.0,20113.0,20778.0,-374.0,0
13235.0,-28836.0,7844.0,-2596.0,17029.0,20426.0,-1195.0,0
13257.0,-26072.0,6396.0,-4816.0,4870.0,11025.0,-2961.0,0
13279.0,-17684.0,11860.0,-9556.0,11928.0,18453.0,-5405.0,0
13301.0,-18568.0,8644.0,-3536.0,-6241.0,13292.0,-10402.0,0
13323.0,-16436.0,1920.0,16704.0,-14872.0,-722.0,4967.0,0
13345.0,-2152.0,7692.0,12924.0,-5180.0,-6012.0,-153.0,0
13367.0,-8036.0,668.0,3972.0,-888.0,-12786.0,-1686.0,0
13389.0,-9312.0,2216.0,2644.0,-1295.0,-20081.0,1107.0,0
13411.0,-10132.0,3148.0,3784.0,-1775.0,-26490.0,2654.0,0
13433.0,-12016.0,2584.0,1748.0,-2099.0,-31497.0,3580.0,0
13455.0,-14636.0,1852.0,580.0,-5258.0,-32768.0,3439.0,0
13477.0,-18108.0,232.0,52.0,-4709.0,-32768.0,4062.0,0
13499.0,-23248.0,828.0,-3036.0,-2058.0,-32768.0,4453.0,0
13521.0,-26840.0,1864.0,-4968.0,-1180.0,-32768.0,5654.0,0
13543.0,-30448.0,2056.0,-9140.0,-2801.0,-32768.0,6683.0,0
13565.0,-32768.0,3144.0,-12820.0,-6904.0,-32768.0,6878.0,0
13587.0,-32768.0,2740.0,-18108.0,-7327.0,-32768.0,6003.0,0
13609.0,-32284.0,2760.0,-23612.0,-5656.0,-32768.0,4581.0,0
13631.0,-24100.0,-4592.0,-31876.0,-1573.0,-27519.0,2780.0,0
13653.0,-13488.0,-4156.0,-32768.0,10973.0,-11989.0,6156.0,0
13675.0,-9988.0,-5628.0,-32768.0,11780.0,4226.0,1763.0,0
13697.0,-18372.0,1604.0,-19504.0,4236.0,12796.0,-9872.0,0
13719.0,-26116.0,3856.0,32767.0,-865.0,7003.0,2281.0,0
13741.0,-27832.0,-18856.0,-26404.0,-2996.0,18979.0,-6937.0,0
13763.0,-25160.0,2780.0,-844.0,7518.0,18052.0,2234.0,0
13785.0,-20056.0,11272.0,-8364.0,-7.0,19298.0,3172.0,0
13807.0,-18828.0,3152.0,-5280.0,-5885.0,13197.0,-358.0,0
13829.0,-12696.0,3780.0,684.0,-3487.0,11023.0,-3035.0,0
13851.0,-19508.0,-1412.0,-1332.0,-231.0,10032.0,-3335.0,0
13873.0,-16896.0,1736.0,-492.0,975.0,8864.0,-1892.0,0
13895.0,-16940.0,1420.0,-268.0,383.0,7619.0,-186.0,0
13917.0,-16876.0,2764.0,-108.0,-1897.0,6979.0,-616.0,0
13939.0,-15584.0,3784.0,-384.0,-3554.0,6261.0,-1212.0,0
13961.0,-15876.0,2144.0,-584.0,-2073.0,5674.0,-2193.0,0
13983.0,-16372.0,1452.0,-1208.0,-1592.0,5756.0,-2158.0,0
14005.0,-15976.0,1984.0,-492.0,-1558.0,6056.0,-1031.0,0
14027.0,-16500.0,2620.0,-588.0,-2317.0,6318.0,-915.0,0
14049.0,-16060.0,3036.0,-704.0,-4445.0,6738.0,-1427.0,0
14071.0,-16228.0,2808.0,-1640.0,-5957.0,7596.0,-1261.0,0
14093.0,-16472.0,2096.0,-2828.0,-7515.0,8617.0,-1632.0,0
14115.0,-16296.0,1880.0,-2648.0,-7560.0,9851.0,-2363.0,0
14137.0,-16928.0,2320.0,-2512.0,-5432.0,11465.0,-2372.0,0
14159.0,-18260.0,2772.0,-3900.0,-1758.0,12470.0,-2533.0,0
14181.0,-19372.0,2796.0,-3740.0,3058.0,14781.0,-3060.0,0
14203.0,-21796.0,2328.0,-2856.0,5794.0,17413.0,-2917.0,0
14225.0,-22776.0,-1784.0,-1824.0,6432.0,17028.0,-4673.0,0
14247.0,-23384.0,-1860.0,-3376.0,4169.0,16289.0,-3676.0,0
14269.0,-21336.0,1336.0,-3056.0,3942.0,16148.0,-2961.0,0
14291.0,-24188.0,1424.0,-1124.0,3795.0,16113.0,-2995.0,0
14313.0,-27132.0,6420.0,3816.0,5247.0,15630.0,-3791.0,0
14335.0,-32768.0,-604.0,16668.0,15183.0,-1484.0,-4016.0,0
14357.0,-18444.0,1784.0,-9996.0,31543.0,17261.0,-5989.0,0
14379.0,-27056.0,7364.0,-10952.0,14631.0,25756.0,-1905.0,0
14401.0,-26132.0,11872.0,-10104.0,4473.0,24413.0,-3858.0,0
14423.0,-10716.0,7104.0,-7880.0,-513.0,16766.0,-8425.0,0
14445.0,-12740.0,8036.0,21952.0,-12745.0,4533.0,5632.0,0
14467.0,-5408.0,6068.0,11448.0,-7911.0,-2171.0,2550.0,0
14489.0,-7940.0,3128.0,9028.0,-9526.0,-10416.0,5044.0,0
14511.0,-8960.0,3960.0,8136.0,-6981.0,-17560.0,6083.0,0
14533.0,-12132.0,424.0,5648.0,-6028.0,-24356.0,6061.0,0
14555.0,-14748.0,-1540.0,2388.0,-5920.0,-29063.0,7361.0,0
14577.0,-18508.0,-868.0,1712.0,-7471.0,-32581.0,7916.0,0
14599.0,-21868.0,-996.0,-660.0,-6572.0,-32768.0,7299.0,0
14621.0,-24908.0,288.0,-2440.0,-8092.0,-32768.0,6940.0,0
14643.0,-28332.0,1048.0,-2476.0,-9829.0,-32768.0,5801.0,0
14665.0,-30840.0,1544.0,-3136.0,-10539.0,-32768.0,3946.0,0
14687.0,-32768.0,2820.0,-4872.0,-9342.0,-32768.0,3475.0,0
14709.0,-32768.0,1624.0,-8248.0,-8499.0,-32768.0,2611.0,0
14731.0,-32768.0,-620.0,-13716.0,-4728.0,-32768.0,2281.0,0
14753.0,-28208.0,-3312.0,-18424.0,3401.0,-31716.0,2239.0,0
14775.0,-21076.0,1320.0,-25364.0,705.0,-24837.0,4507.0,0
14797.0,-11528.0,2632.0,-32768.0,7880.0,-15663.0,1269.0,0
14819.0,-9068.0,-5284.0,-26936.0,13030.0,-4256.0,2547.0,0
14841.0,-12524.0,-4516.0,-23276.0,12817.0,8717.0,-1044.0,0
14863.0,-18204.0,664.0,-17008.0,3081.0,13085.0,-3702.0,0
14885.0,-19480.0,576.0,-15108.0,6571.0,17014.0,-2687.0,0
14907.0,-32768.0,-1644.0,32767.0,4158.0,3368.0,-4808.0,0
14929.0,-6560.0,-13876.0,-11080.0,-4625.0,21936.0,-5133.0,0
14951.0,-32768.0,-944.0,-9144.0,-1141.0,19635.0,3591.0,0
14973.0,-25796.0,18892.0,-20216.0,4224.0,21131.0,5040.0,0
14995.0,-20480.0,-2628.0,2272.0,-7001.0,14131.0,407.0,0
15017.0,-18192.0,4644.0,-1308.0,-3134.0,12643.0,4173.0,0
15039.0,-14148.0,5172.0,-592.0,127.0,9189.0,-871.0,0
15061.0,-17884.0,1784.0,-952.0,2499.0,7026.0,-1363.0,0
15083.0,-16944.0,2976.0,-116.0,3635.0,5679.0,-166.0,0
15105.0,-17116.0,1668.0,108.0,4357.0,4727.0,292.0,0
15127.0,-16532.0,2556.0,60.0,1678.0,4577.0,70.0,0
15149.0,-15056.0,5136.0,-1140.0,565.0,4455.0,427.0,0
15171.0,-14908.0,6728.0,-1372.0,875.0,4681.0,-35.0,0
15193.0,-14900.0,5116.0,-1468.0,-2378.0,5431.0,-1327.0,0
15215.0,-15608.0,3840.0,-1652.0,-4957.0,6882.0,-2412.0,0
15237.0,-16060.0,2132.0,-980.0,-6170.0,8618.0,-2152.0,0
15259.0,-16016.0,3008.0,-1124.0,-4105.0,10788.0,-1539.0,0
15281.0,-16580.0,2764.0,-2248.0,-4189.0,12811.0,-1878.0,0
15303.0,-18336.0,3048.0,-3060.0,-1563.0,13168.0,-2085.0,0
15325.0,-18956.0,3224.0,-3260.0,1309.0,13389.0,-1471.0,0
15347.0,-20468.0,1208.0,-3312.0,2163.0,13085.0,-2067.0,0
15369.0,-20864.0,3128.0,-3868.0,3246.0,12703.0,-1659.0,0
15391.0,-20436.0,2684.0,-3452.0,2624.0,12752.0,-1655.0,0
15413.0,-20092.0,1884.0,-2928.0,2536.0,13395.0,-2524.0,0
15435.0,-19504.0,2472.0,-2176.0,2728.0,15076.0,-2860.0,0
15457.0,-20336.0,2472.0,-1720.0,4473.0,16840.0,-3053.0,0
15479.0,-24192.0,2932.0,1480.0,5847.0,18702.0,-2784.0,0
15501.0,-26036.0,5204.0,4064.0,8827.0,19074.0,-3571.0,0
15523.0,-28760.0,2456.0,5164.0,11700.0,17810.0,-2955.0,0
15545.0,-28660.0,6348.0,-5168.0,16908.0,13972.0,111.0,0
15567.0,-24800.0,10800.0,-3372.0,10269.0,19525.0,441.0,0
15589.0,-21360.0,9612.0,-4116.0,9550.0,23038.0,-5253.0,0
15611.0,-31804.0,7580.0,-5244.0,2242.0,15695.0,-5587.0,0
15633.0,-11440.0,6164.0,17408.0,731.0,2242.0,2331.0,0
15655.0,-4644.0,7280.0,9544.0,5445.0,-2943.0,-1478.0,0
15677.0,-7440.0,3564.0,3124.0,2854.0,-10506.0,1789.0,0
15699.0,-7448.0,5096.0,2956.0,-1143.0,-17777.0,4315.0,0
15721.0,-9852.0,4952.0,1616.0,-5544.0,-23118.0,6452.0,0
15743.0,-10976.0,4836.0,-896.0,-9772.0,-27813.0,7000.0,0
15765.0,-13864.0,5636.0,-2964.0,-11830.0,-31798.0,6793.0,0
15787.0,-16528.0,5444.0,-4176.0,-10465.0,-32768.0,6598.0,0
15809.0,-20524.0,3912.0,-6024.0,-9390.0,-32768.0,6796.0,0
15831.0,-23192.0,3868.0,-7248.0,-7537.0,-32768.0,7463.0,0
15853.0,-25780.0,7628.0,-8176.0,-9155.0,-32768.0,8088.0,0
15875.0,-29768.0,6612.0,-8536.0,-10369.0,-32768.0,6373.0,0
15897.0,-30200.0,4740.0,-9324.0,-5809.0,-32768.0,6902.0,0
15919.0,-32536.0,2756.0,-12340.0,4183.0,-32768.0,9009.0,0
15941.0,-31536.0,3152.0,-17324.0,3479.0,-31356.0,10208.0,0
15963.0,-24820.0,1232.0,-20136.0,-4018.0,-26557.0,10108.0,0
15985.0,-17840.0,712.0,-22968.0,-998.0,-18339.0,8950.0,0
16007.0,-12376.0,-3568.0,-24840.0,5272.0,-6720.0,8333.0,0
16029.0,-13352.0,-2372.0,-23344.0,4107.0,4525.0,4389.0,0
16051.0,-15416.0,-3580.0,-18524.0,-1820.0,12290.0,-104.0,0
16073.0,-17716.0,304.0,-16392.0,-13095.0,18002.0,-6346.0,0
16095.0,-22700.0,-8192.0,32767.0,-24112.0,19869.0,-932.0,0
16117.0,-32192.0,-20408.0,-25336.0,-3856.0,22665.0,-7058.0,0
16139.0,-22764.0,26700.0,-18212.0,10194.0,25671.0,11662.0,0
16161.0,-20132.0,-6768.0,2016.0,-11420.0,13827.0,-4166.0,0
16183.0,-19148.0,3692.0,-1344.0,-11394.0,11758.0,610.0,0
16205.0,-14152.0,4060.0,300.0,-1259.0,7600.0,-2236.0,0
16227.0,-18016.0,1792.0,188.0,5087.0,5870.0,-1139.0,0
16249.0,-17736.0,2136.0,692.0,7871.0,4064.0,1479.0,0
16271.0,-17068.0,3172.0,740.0,7916.0,4048.0,2450.0,0
16293.0,-13492.0,7420.0,436.0,4196.0,4501.0,943.0,0
16315.0,-13564.0,6700.0,-228.0,2115.0,5338.0,-1043.0,0
16337.0,-15356.0,5076.0,-460.0,-55.0,6200.0,-1346.0,0
16359.0,-15008.0,4040.0,4.0,-1686.0,7575.0,-1780.0,0
16381.0,-15912.0,2676.0,-448.0,-3779.0,9832.0,-2001.0,0
16403.0,-17796.0,3896.0,-604.0,-3706.0,11321.0,-1459.0,0
16425.0,-17580.0,4020.0,-1656.0,-3178.0,12397.0,-953.0,0
16447.0,-16776.0,4124.0,-2296.0,-5408.0,11735.0,-3230.0,0
16469.0,-18332.0,3108.0,-2660.0,-1371.0,11435.0,-1786.0,0
16491.0,-18520.0,5280.0,-2980.0,1239.0,10856.0,-759.0,0
16513.0,-18512.0,4556.0,-3544.0,718.0,10167.0,-1347.0,0
16535.0,-18660.0,4380.0,-3372.0,1934.0,9763.0,-646.0,0
16557.0,-17172.0,3504.0,-3436.0,2150.0,10861.0,-759.0,0
16579.0,-18412.0,3704.0,-2292.0,2466.0,12669.0,-1076.0,0
16601.0,-18824.0,3524.0,-2972.0,2587.0,14764.0,-1760.0,0
16623.0,-20116.0,3384.0,-2976.0,4054.0,16251.0,-1505.0,0
16645.0,-21252.0,2220.0,-2236.0,5199.0,16359.0,-1345.0,0
16667.0,-25788.0,2008.0,580.0,4827.0,16255.0,-2422.0,0
16689.0,-23632.0,932.0,2656.0,9205.0,16010.0,-2201.0,0
16711.0,-23392.0,-1364.0,2976.0,11543.0,17115.0,-2996.0,0
16733.0,-26088.0,5540.0,-3700.0,12224.0,23621.0,262.0,0
16755.0,-29076.0,7616.0,9864.0,4539.0,17327.0,597.0,0
16777.0,-22796.0,8348.0,-7600.0,7041.0,11738.0,-2118.0,0
16799.0,-16712.0,5180.0,-15840.0,5840.0,23503.0,-5010.0,0
16821.0,-32768.0,2612.0,-10616.0,-7682.0,13079.0,-4957.0,0
16843.0,-10920.0,8944.0,18008.0,-5874.0,-1696.0,2828.0,0
16865.0,-6232.0,3004.0,10272.0,2600.0,-5989.0,-3263.0,0
16887.0,-8732.0,1044.0,3496.0,9771.0,-15019.0,-19.0,0
16909.0,-8968.0,5560.0,5564.0,3360.0,-21855.0,2473.0,0
16931.0,-10336.0,4504.0,5120.0,882.0,-28086.0,2675.0,0
16953.0,-12672.0,4208.0,2468.0,-451.0,-32768.0,4223.0,0
16975.0,-15280.0,2432.0,-272.0,-4061.0,-32768.0,4571.0,0
16997.0,-18648.0,2536.0,-1152.0,-6090.0,-32768.0,5849.0,0
17019.0,-23144.0,4116.0,-3996.0,-5123.0,-32768.0,6789.0,0
17041.0,-28340.0,4100.0,-5060.0,-9407.0,-32768.0,7766.0,0
17063.0,-32768.0,3304.0,-9760.0,-8381.0,-32768.0,6859.0,0
17085.0,-32768.0,1596.0,-18560.0,-2118.0,-32768.0,7247.0,0
17107.0,-32768.0,1736.0,-31616.0,-5581.0,-32768.0,8136.0,0
17129.0,-28216.0,4396.0,-32052.0,-10566.0,-29365.0,4869.0,0
17151.0,-21376.0,-4040.0,-32768.0,-6098.0,-22028.0,-1376.0,0
17173.0,-12688.0,-5108.0,-32768.0,7453.0,-8218.0,2227.0,0
17195.0,-12592.0,-1948.0,-32768.0,12512.0,5646.0,1707.0,0
17217.0,-18568.0,5204.0,-18632.0,7073.0,11018.0,-6256.0,0
17239.0,-16884.0,7596.0,32767.0,-4236.0,7492.0,56.0,0
17261.0,-25608.0,-17060.0,-28460.0,-2255.0,18735.0,-4201.0,0
17283.0,-27268.0,5276.0,2464.0,3296.0,16246.0,2966.0,0
17305.0,-24304.0,12164.0,-13316.0,-6240.0,18187.0,3070.0,0
17327.0,-19684.0,1156.0,-888.0,-9435.0,11166.0,-652.0,0
17349.0,-11540.0,4376.0,-820.0,-4818.0,10570.0,-1972.0,0
17371.0,-18552.0,1144.0,-484.0,-2080.0,8868.0,-2740.0,0
17393.0,-16284.0,1424.0,152.0,1339.0,7502.0,-1112.0,0
17415.0,-16752.0,1904.0,472.0,970.0,6461.0,539.0,0
17437.0,-16928.0,3300.0,700.0,-2625.0,6248.0,40.0,0
17459.0,-14788.0,4424.0,272.0,-5112.0,6298.0,-1448.0,0
17481.0,-15284.0,4128.0,-308.0,-4308.0,5957.0,-1841.0,0
17503.0,-15844.0,2184.0,-420.0,-5652.0,6226.0,-1832.0,0
17525.0,-16088.0,2112.0,52.0,-5484.0,6940.0,-1019.0,0
17547.0,-15940.0,3036.0,-616.0,-5838.0,7920.0,-1120.0,0
17569.0,-15940.0,3188.0,-700.0,-4657.0,8253.0,-945.0,0
17591.0,-16132.0,2972.0,-1492.0,-3629.0,8987.0,-1271.0,0
17613.0,-16488.0,1960.0,-1944.0,-1804.0,9997.0,-1341.0,0
17635.0,-16376.0,2044.0,-2128.0,27.0,11159.0,-1034.0,0
17657.0,-16196.0,2508.0,-2528.0,1308.0,12849.0,-1228.0,0
17679.0,-17252.0,3160.0,-3348.0,1612.0,13710.0,-2076.0,0
17701.0,-19688.0,3620.0,-3652.0,1741.0,13661.0,-2867.0,0
17723.0,-20576.0,1324.0,-3740.0,2866.0,13577.0,-2246.0,0
17745.0,-21136.0,-468.0,-4276.0,2993.0,14221.0,-2325.0,0
17767.0,-20364.0,1692.0,-3580.0,3455.0,15287.0,-1746.0,0
17789.0,-22756.0,2888.0,-3004.0,3085.0,17265.0,-1534.0,0
17811.0,-24812.0,5684.0,-1812.0,5577.0,17520.0,-2382.0,0
17833.0,-26492.0,2400.0,848.0,10259.0,18478.0,-570.0,0
17855.0,-29832.0,796.0,4820.0,16479.0,17804.0,-642.0,0
17877.0,-25100.0,2612.0,4080.0,25613.0,20254.0,-1171.0,0
17899.0,-24852.0,1388.0,-7768.0,22171.0,25820.0,-2769.0,0
17921.0,-25296.0,10016.0,2888.0,-3418.0,11726.0,-5178.0,0
17943.0,-17752.0,10664.0,-3912.0,15296.0,15016.0,-1586.0,0
17965.0,-18348.0,11368.0,-3248.0,-468.0,13894.0,-10813.0,0
17987.0,-12784.0,432.0,9824.0,-13689.0,-591.0,3264.0,0
18009.0,-3592.0,5716.0,10984.0,-7804.0,-4681.0,4310.0,0
18031.0,-4420.0,2804.0,5096.0,-5803.0,-10219.0,4737.0,0
18053.0,-6900.0,2552.0,2176.0,-9643.0,-17046.0,4672.0,0
18075.0,-9028.0,1080.0,1104.0,-8688.0,-23211.0,4689.0,0
18097.0,-11312.0,1388.0,1592.0,-10790.0,-28305.0,5312.0,0
18119.0,-13960.0,1112.0,536.0,-12162.0,-32424.0,4555.0,0
18141.0,-18204.0,-672.0,-1008.0,-12530.0,-32768.0,2883.0,0
18163.0,-21300.0,-728.0,-2168.0,-9030.0,-32768.0,2285.0,0
18185.0,-25844.0,1420.0,-3612.0,-6053.0,-32768.0,1888.0,0
18207.0,-30048.0,3704.0,-5752.0,-7108.0,-32768.0,2324.0,0
18229.0,-32768.0,3792.0,-6520.0,-7844.0,-32768.0,1512.0,0
18251.0,-32768.0,2900.0,-8308.0,-5847.0,-32768.0,1336.0,0
18273.0,-32768.0,3188.0,-10708.0,-4278.0,-32768.0,2311.0,0
18295.0,-29260.0,2396.0,-11460.0,-1184.0,-32768.0,2061.0,0
18317.0,-25572.0,-4204.0,-17092.0,4087.0,-29406.0,2225.0,0
18339.0,-17068.0,-844.0,-31276.0,5906.0,-20538.0,4024.0,0
18361.0,-7924.0,280.0,-30876.0,7795.0,-7570.0,4227.0,0
18383.0,-8316.0,-2704.0,-22380.0,11787.0,6296.0,-1366.0,0
18405.0,-16048.0,-220.0,-21428.0,5665.0,15337.0,-4040.0,0
18427.0,-19936.0,-568.0,-17104.0,2633.0,19156.0,-2821.0,0
18449.0,-23924.0,2336.0,-6360.0,2557.0,20215.0,488.0,0
18471.0,-10844.0,22472.0,32767.0,-8621.0,8854.0,-201.0,0
18493.0,-16252.0,-13180.0,-32768.0,3301.0,25226.0,-5422.0,0
18515.0,-21428.0,21300.0,1700.0,9896.0,15832.0,4585.0,0
18537.0,-25508.0,7492.0,-5784.0,-5302.0,16924.0,-4551.0,0
18559.0,-18460.0,-4092.0,-4416.0,-9839.0,16942.0,-2977.0,0
18581.0,-18188.0,1056.0,-4.0,-837.0,12010.0,495.0,0
18603.0,-18652.0,1924.0,-1340.0,120.0,9783.0,-875.0,0
18625.0,-17248.0,2788.0,-1596.0,1280.0,6619.0,-714.0,0
18647.0,-16924.0,3340.0,-244.0,1655.0,4582.0,-287.0,0
18669.0,-15628.0,3808.0,76.0,1546.0,4528.0,-985.0,0
18691.0,-15400.0,4004.0,-416.0,185.0,5189.0,-1264.0,0
18713.0,-15136.0,3976.0,-736.0,-2607.0,5829.0,-1685.0,0
18735.0,-15784.0,3448.0,-1392.0,-6187.0,6066.0,-1510.0,0
18757.0,-15864.0,3260.0,-1548.0,-8803.0,6605.0,-1806.0,0
18779.0,-16060.0,2056.0,-852.0,-8139.0,7902.0,-1981.0,0
18801.0,-16660.0,1120.0,-1492.0,-3657.0,9067.0,-1161.0,0
18823.0,-16256.0,2092.0,-1476.0,-386.0,10297.0,-544.0,0
18845.0,-16824.0,3064.0,-2156.0,1209.0,10953.0,-307.0,0
18867.0,-16608.0,3444.0,-2984.0,1129.0,11674.0,-607.0,0
18889.0,-17928.0,2752.0,-3196.0,1392.0,11543.0,-1077.0,0
18911.0,-18192.0,3104.0,-3284.0,2188.0,11478.0,-976.0,0
18933.0,-19764.0,2208.0,-3428.0,2828.0,12127.0,-1181.0,0
18955.0,-20852.0,604.0,-3736.0,1766.0,13423.0,-1653.0,0
18977.0,-20772.0,1032.0,-3464.0,1268.0,14610.0,-1625.0,0
18999.0,-21172.0,2056.0,-3840.0,1001.0,15799.0,-2412.0,0
19021.0,-21764.0,3100.0,-3116.0,1879.0,15986.0,-2288.0,0
19043.0,-25308.0,3060.0,-960.0,2011.0,16502.0,-2649.0,0
19065.0,-22056.0,5500.0,1228.0,8697.0,15750.0,-2287.0,0
19087.0,-26760.0,4392.0,5112.0,16850.0,15748.0,-1805.0,0
19109.0,-22988.0,7344.0,-4068.0,25434.0,22443.0,-1099.0,0
19131.0,-26912.0,4628.0,-1484.0,20619.0,26553.0,-1007.0,0
19153.0,-22216.0,4776.0,1396.0,3947.0,20050.0,-3803.0,0
19175.0,-18684.0,8864.0,-4764.0,24612.0,16371.0,-2349.0,0
19197.0,-21676.0,12504.0,-13552.0,7173.0,19732.0,-9139.0,0
19219.0,-18288.0,4932.0,7020.0,-19558.0,-2119.0,-212.0,0
19241.0,-5992.0,5068.0,11152.0,-15031.0,-5068.0,1198.0,0
19263.0,-6168.0,876.0,5516.0,-12797.0,-10397.0,1523.0,0
19285.0,-7956.0,3340.0,-96.0,-7753.0,-17060.0,2916.0,0
19307.0,-8440.0,2668.0,1200.0,-9187.0,-24047.0,3855.0,0
19329.0,-10212.0,2332.0,2012.0,-9021.0,-29636.0,3998.0,0
19351.0,-12916.0,3064.0,-324.0,-8552.0,-32768.0,4175.0,0
19373.0,-16688.0,2108.0,-728.0,-12203.0,-32768.0,4152.0,0
19395.0,-21180.0,1644.0,-1312.0,-10494.0,-32768.0,3321.0,0
19417.0,-23092.0,3020.0,-4524.0,-7075.0,-32768.0,4263.0,0
19439.0,-28864.0,4176.0,-8284.0,-10363.0,-32768.0,5081.0,0
19461.0,-32768.0,4556.0,-13844.0,-14433.0,-32768.0,3487.0,0
19483.0,-32768.0,3948.0,-20648.0,-11966.0,-32768.0,1538.0,0
19505.0,-32768.0,3524.0,-25380.0,-4590.0,-32768.0,1444.0,0
19527.0,-20576.0,2972.0,-32148.0,-2316.0,-30087.0,95.0,0
19549.0,-17400.0,-3376.0,-32768.0,8387.0,-19425.0,1935.0,0
19571.0,-11228.0,-3684.0,-32768.0,16295.0,-4702.0,4694.0,0
19593.0,-13488.0,768.0,-30908.0,10717.0,8950.0,-1475.0,0
19615.0,-17856.0,-2744.0,-21540.0,3426.0,15700.0,-4656.0,0
19637.0,-32768.0,-664.0,32767.0,-5085.0,-5864.0,642.0,0
19659.0,-3744.0,-10880.0,-20384.0,4800.0,15170.0,-9061.0,0
19681.0,-32768.0,-9812.0,-840.0,6672.0,13682.0,1385.0,0
19703.0,-13620.0,4596.0,-4456.0,3078.0,16115.0,250.0,0
19725.0,-25348.0,10332.0,-5500.0,2656.0,11616.0,4712.0,0
19747.0,-17692.0,1144.0,128.0,2847.0,9518.0,-1766.0,0
19769.0,-16292.0,4660.0,-624.0,6348.0,8460.0,117.0,0
19791.0,-16308.0,5240.0,-936.0,5456.0,6285.0,-1489.0,0
19813.0,-16536.0,3684.0,-152.0,3013.0,5066.0,-581.0,0
19835.0,-16212.0,4304.0,444.0,-1964.0,4542.0,-1031.0,0
19857.0,-14596.0,5480.0,1056.0,-4737.0,4654.0,-1718.0,0
19879.0,-14592.0,5676.0,144.0,-6256.0,5501.0,-2511.0,0
19901.0,-14912.0,5212.0,672.0,-5711.0,5869.0,-2016.0,0
19923.0,-15496.0,2964.0,-740.0,-5668.0,7314.0,-2094.0,0
19945.0,-16392.0,1952.0,152.0,-5784.0,8575.0,-1522.0,0
19967.0,-16648.0,4048.0,-772.0,-4823.0,10347.0,-653.0,0
19989.0,-15712.0,4020.0,-2040.0,-4539.0,12310.0,-1105.0,0
20011.0,-17192.0,2872.0,-2340.0,-4314.0,13638.0,-2288.0,0
20033.0,-17828.0,4140.0,-3136.0,-1323.0,13799.0,-2021.0,0
20055.0,-18528.0,1856.0,-3236.0,189.0,14037.0,-2879.0,0
20077.0,-20084.0,1772.0,-3400.0,1148.0,12861.0,-3014.0,0
20099.0,-20468.0,1588.0,-3048.0,3364.0,11788.0,-2456.0,0
20121.0,-20104.0,120.0,-2420.0,2089.0,11942.0,-2368.0,0
20143.0,-19752.0,-148.0,-2980.0,1777.0,13826.0,-2075.0,0
20165.0,-20112.0,1636.0,-3004.0,1126.0,15628.0,-2043.0,0
20187.0,-21828.0,2660.0,-2556.0,-219.0,16392.0,-2874.0,0
20209.0,-22520.0,3008.0,-2260.0,1827.0,15518.0,-2928.0,0
20231.0,-25076.0,3284.0,1596.0,3665.0,15227.0,-3639.0,0
20253.0,-22276.0,4096.0,4580.0,10840.0,14859.0,-3440.0,0
20275.0,-24540.0,3288.0,4084.0,17645.0,17739.0,-3725.0,0
20297.0,-26264.0,7580.0,-2916.0,21044.0,25573.0,-1737.0,0
20319.0,-24864.0,2612.0,1080.0,10550.0,22657.0,-3950.0,0
20341.0,-27036.0,8948.0,-4000.0,10644.0,12597.0,-712.0,0
20363.0,-19096.0,6240.0,-17244.0,8142.0,26609.0,-6567.0,0
20385.0,-32768.0,3784.0,-8380.0,-11466.0,9726.0,-3240.0,0
20407.0,-9180.0,11056.0,17532.0,-8318.0,-4709.0,5302.0,0
20429.0,-7156.0,3324.0,6480.0,-7501.0,-9211.0,1073.0,0
20451.0,-8968.0,2540.0,580.0,-5447.0,-14794.0,5044.0,0
20473.0,-8180.0,3504.0,1368.0,-8037.0,-22175.0,4748.0,0
20495.0,-9792.0,5128.0,1212.0,-10720.0,-27425.0,4330.0,0
20517.0,-12424.0,3776.0,520.0,-13713.0,-32649.0,4475.0,0
20539.0,-15908.0,3848.0,-808.0,-15286.0,-32768.0,4347.0,0
20561.0,-20584.0,2052.0,-2612.0,-15563.0,-32768.0,3483.0,0
20583.0,-24020.0,2952.0,-2944.0,-13905.0,-32768.0,2888.0,0
20605.0,-28192.0,3080.0,-3384.0,-11630.0,-32768.0,2173.0,0
20627.0,-32768.0,2716.0,-7204.0,-9771.0,-32768.0,1677.0,0
20649.0,-32768.0,3324.0,-11016.0,-7598.0,-32768.0,1164.0,0
20671.0,-32768.0,3896.0,-19356.0,-3008.0,-32768.0,1257.0,0
20693.0,-32768.0,-888.0,-24284.0,979.0,-32768.0,1584.0,0
20715.0,-21200.0,1064.0,-32768.0,6773.0,-28120.0,2084.0,0
20737.0,-12136.0,-908.0,-32768.0,14594.0,-16304.0,288.0,0
20759.0,-8572.0,-5748.0,-32768.0,16654.0,-1557.0,2507.0,0
20781.0,-12404.0,-1596.0,-27472.0,11849.0,9972.0,73.0,0
20803.0,-18920.0,1308.0,-20720.0,228.0,16571.0,-3248.0,0
20825.0,-22032.0,-2052.0,-11284.0,1306.0,19790.0,-1654.0,0
20847.0,-32768.0,6528.0,32767.0,602.0,228.0,1172.0,0
20869.0,-1304.0,-17020.0,-9124.0,6622.0,11765.0,-6414.0,0
20891.0,-32768.0,3284.0,-8832.0,5852.0,13434.0,7931.0,0
20913.0,-16468.0,13244.0,-15364.0,-6288.0,18037.0,-4116.0,0
20935.0,-16908.0,-1580.0,-248.0,-5340.0,14398.0,-1932.0,0
20957.0,-19412.0,2544.0,-1360.0,110.0,11788.0,1410.0,0
20979.0,-14672.0,4400.0,-380.0,886.0,8782.0,-874.0,0
21001.0,-17064.0,3640.0,-256.0,2521.0,6175.0,-1094.0,0
21023.0,-16672.0,3700.0,-200.0,3191.0,4514.0,-483.0,0
21045.0,-16260.0,3544.0,232.0,2060.0,3939.0,-1112.0,0
21067.0,-15092.0,4028.0,-120.0,-452.0,4717.0,-665.0,0
21089.0,-15028.0,4708.0,-588.0,-5212.0,5067.0,-1293.0,0
21111.0,-15316.0,5312.0,-416.0,-7353.0,5916.0,-1672.0,0
21133.0,-15312.0,4136.0,-452.0,-7324.0,7147.0,-2579.0,0
21155.0,-16072.0,3320.0,-580.0,-6292.0,8074.0,-2587.0,0
21177.0,-17180.0,3132.0,-1168.0,-3242.0,8960.0,-2070.0,0
21199.0,-15696.0,5512.0,-932.0,-788.0,9703.0,-984.0,0
21221.0,-17128.0,2520.0,-2164.0,-1550.0,10544.0,-1859.0,0
21243.0,-17484.0,2848.0,-2712.0,68.0,9975.0,-2097.0,0
21265.0,-17348.0,2792.0,-2496.0,473.0,10010.0,-2131.0,0
21287.0,-18008.0,2040.0,-2560.0,1041.0,10536.0,-2318.0,0
21309.0,-18928.0,2488.0,-3108.0,1916.0,11131.0,-1236.0,0
21331.0,-20820.0,1416.0,-2608.0,1437.0,11750.0,-1816.0,0
21353.0,-19556.0,1264.0,-2688.0,1103.0,13187.0,-1709.0,0
21375.0,-19616.0,1980.0,-3232.0,-565.0,14924.0,-2416.0,0
21397.0,-20812.0,3532.0,-3812.0,-831.0,15711.0,-2925.0,0
21419.0,-21040.0,4820.0,-3020.0,1651.0,15073.0,-2864.0,0
21441.0,-25584.0,5668.0,276.0,2659.0,16198.0,-3429.0,0
21463.0,-23292.0,5300.0,2556.0,9854.0,16448.0,-2217.0,0
21485.0,-25864.0,2732.0,4848.0,15878.0,16543.0,-2096.0,0
21507.0,-22244.0,7968.0,-1020.0,23094.0,22472.0,-619.0,0
21529.0,-26736.0,2456.0,2364.0,24317.0,22524.0,-1869.0,0
21551.0,-26228.0,6500.0,-6040.0,3224.0,18981.0,-1365.0,0
21573.0,-20556.0,12348.0,-10376.0,19366.0,20461.0,-801.0,0
21595.0,-29000.0,11640.0,1924.0,-3184.0,9365.0,-6980.0,0
21617.0,-10680.0,6756.0,14488.0,-13364.0,593.0,2193.0,0
21639.0,-7176.0,3408.0,10224.0,-11698.0,-5961.0,-194.0,0
21661.0,-9128.0,3592.0,1428.0,-6735.0,-13277.0,2608.0,0
21683.0,-9404.0,4500.0,2036.0,-10955.0,-20911.0,4020.0,0
21705.0,-9800.0,3840.0,2456.0,-11072.0,-27262.0,3806.0,0
21727.0,-12016.0,3464.0,516.0,-11101.0,-31928.0,3821.0,0
21749.0,-15804.0,3060.0,-524.0,-12420.0,-32768.0,3323.0,0
21771.0,-19916.0,1412.0,-2788.0,-11725.0,-32768.0,2091.0,0
21793.0,-24360.0,1780.0,-3304.0,-9400.0,-32768.0,2483.0,0
21815.0,-27956.0,2296.0,-3756.0,-6015.0,-32768.0,2420.0,0
21837.0,-31580.0,3752.0,-10796.0,-3252.0,-32768.0,3270.0,0
21859.0,-32768.0,5692.0,-10636.0,-3921.0,-32768.0,3585.0,0
21881.0,-32768.0,1868.0,-15296.0,-3260.0,-32768.0,2161.0,0
21903.0,-30680.0,3756.0,-20584.0,-154.0,-32768.0,3192.0,0
21925.0,-23916.0,1400.0,-25116.0,1325.0,-30360.0,1764.0,0
21947.0,-16832.0,-5900.0,-32768.0,13240.0,-19367.0,4344.0,0
21969.0,-9708.0,-4336.0,-31980.0,14495.0,-3939.0,6455.0,0
21991.0,-12904.0,232.0,-27100.0,8511.0,6973.0,763.0,0
22013.0,-16424.0,-1556.0,-18388.0,-1967.0,12531.0,-3879.0,0
22035.0,-20056.0,-1332.0,-12820.0,-833.0,17391.0,-1078.0,0
22057.0,-29464.0,6808.0,18424.0,-2043.0,12471.0,-421.0,0
22079.0,-8976.0,9036.0,32767.0,-14302.0,8759.0,-1364.0,0
22101.0,-24832.0,-12436.0,-32768.0,5089.0,25814.0,-6451.0,0
22123.0,-21944.0,22256.0,-5716.0,12916.0,14081.0,6288.0,0
22145.0,-30068.0,1304.0,-2748.0,-5217.0,11067.0,-1803.0,0
22167.0,-18604.0,1012.0,-868.0,-4914.0,12265.0,-642.0,0
22189.0,-12996.0,5308.0,-28.0,-36.0,9017.0,1437.0,0
22211.0,-17700.0,3204.0,-1128.0,-1053.0,6451.0,-1956.0,0
22233.0,-17028.0,3488.0,-116.0,2187.0,4440.0,-2988.0,0
22255.0,-17396.0,2316.0,48.0,760.0,3585.0,-1989.0,0
22277.0,-16000.0,3592.0,1672.0,452.0,4096.0,-274.0,0
22299.0,-14644.0,4304.0,1432.0,-209.0,5009.0,-809.0,0
22321.0,-14076.0,5596.0,1008.0,-254.0,5988.0,-1022.0,0
22343.0,-15184.0,4728.0,620.0,-670.0,6852.0,-1864.0,0
22365.0,-15388.0,3592.0,-300.0,638.0,7754.0,-1560.0,0
22387.0,-16132.0,3056.0,-984.0,1607.0,8460.0,-756.0,0
22409.0,-15000.0,4248.0,-972.0,2230.0,9116.0,-370.0,0
22431.0,-16480.0,3548.0,-2080.0,-495.0,9478.0,-1463.0,0
22453.0,-16992.0,4452.0,-2632.0,776.0,9708.0,-1275.0,0
22475.0,-17260.0,3044.0,-2896.0,-761.0,9801.0,-2360.0,0
22497.0,-17324.0,4860.0,-2916.0,-662.0,10920.0,-2378.0,0
22519.0,-17996.0,4324.0,-2852.0,-1843.0,12671.0,-2992.0,0
22541.0,-19108.0,1708.0,-2380.0,-2364.0,14499.0,-3127.0,0
22563.0,-20124.0,2476.0,-2328.0,-1904.0,15618.0,-3057.0,0
22585.0,-20408.0,1072.0,-2612.0,-1472.0,16000.0,-2831.0,0
22607.0,-20244.0,2368.0,-2920.0,-630.0,16606.0,-2780.0,0
22629.0,-21620.0,3424.0,-2580.0,-32.0,16984.0,-3779.0,0
22651.0,-23960.0,3588.0,-676.0,2457.0,16854.0,-3807.0,0
22673.0,-23644.0,5412.0,1880.0,7000.0,16574.0,-4453.0,0
22695.0,-26056.0,3044.0,5880.0,10743.0,17467.0,-4214.0,0
22717.0,-24428.0,2412.0,3836.0,18083.0,19522.0,-3507.0,0
22739.0,-26412.0,8488.0,-12932.0,17369.0,26499.0,-1483.0,0
22761.0,-32768.0,9864.0,10308.0,233.0,15404.0,-1405.0,0
22783.0,-19864.0,5872.0,-744.0,14532.0,19247.0,-3595.0,0
22805.0,-17136.0,8852.0,-13736.0,-780.0,25618.0,-11376.0,0
22827.0,-15824.0,1592.0,15080.0,-14703.0,-1842.0,4190.0,0
22849.0,-4256.0,7912.0,14492.0,-9797.0,-5631.0,1129.0,0
22871.0,-7828.0,672.0,3520.0,-5342.0,-11376.0,-1100.0,0
22893.0,-8584.0,2408.0,-420.0,-5248.0,-18388.0,2254.0,0
22915.0,-8780.0,5164.0,3312.0,-7445.0,-26396.0,2816.0,0
22937.0,-10440.0,3416.0,2700.0,-8723.0,-31416.0,1709.0,0
22959.0,-12664.0,2408.0,-668.0,-5712.0,-32768.0,2543.0,0
22981.0,-17304.0,2036.0,-2252.0,-6121.0,-32768.0,3659.0,0
23003.0,-22524.0,1632.0,-1992.0,-4438.0,-32768.0,4408.0,0
23025.0,-25528.0,2128.0,-3852.0,-2096.0,-32768.0,4865.0,0
23047.0,-30880.0,5012.0,-8820.0,-2843.0,-32768.0,7037.0,0
23069.0,-32768.0,4592.0,-13000.0,-8705.0,-32768.0,6686.0,0
23091.0,-32768.0,3132.0,-17776.0,-10935.0,-32768.0,4741.0,0
23113.0,-32768.0,2816.0,-22792.0,-8673.0,-32768.0,4337.0,0
23135.0,-25364.0,756.0,-27364.0,-9741.0,-31669.0,2048.0,0
23157.0,-16580.0,-5460.0,-32768.0,6324.0,-18936.0,2867.0,0
23179.0,-9952.0,-3068.0,-32768.0,12432.0,-2201.0,4967.0,0
23201.0,-11964.0,-664.0,-29672.0,8661.0,9561.0,-3768.0,0
23223.0,-17132.0,-1680.0,-21052.0,3562.0,16262.0,-5416.0,0
23245.0,-32768.0,8040.0,32767.0,5007.0,4904.0,-3383.0,0
23267.0,-12000.0,-2676.0,3640.0,-5045.0,16848.0,346.0,0
23289.0,-32768.0,-17992.0,-17580.0,7973.0,21141.0,-3287.0,0
23311.0,-20232.0,18300.0,-16040.0,6918.0,21203.0,7188.0,0
23333.0,-30416.0,7844.0,-2080.0,-783.0,11287.0,1615.0,0
23355.0,-13604.0,5284.0,-292.0,-1561.0,11961.0,-282.0,0
23377.0,-12652.0,6868.0,-100.0,1690.0,9426.0,-1301.0,0
23399.0,-15776.0,4992.0,-948.0,3112.0,7432.0,-3210.0,0
23421.0,-17456.0,1964.0,-424.0,-1061.0,6743.0,-2544.0,0
23443.0,-17812.0,1796.0,-116.0,-4332.0,6593.0,-1011.0,0
23465.0,-15968.0,2520.0,232.0,-8097.0,6685.0,-1128.0,0
23487.0,-15156.0,4472.0,-532.0,-8747.0,6910.0,-848.0,0
23509.0,-15356.0,4556.0,-452.0,-8019.0,7179.0,-1573.0,0
23531.0,-16012.0,4184.0,-732.0,-5628.0,7721.0,-1004.0,0
23553.0,-16084.0,3180.0,-1248.0,-4646.0,8221.0,-1527.0,0
23575.0,-17280.0,2260.0,-1236.0,-2953.0,8977.0,-1752.0,0
23597.0,-16912.0,3096.0,-1356.0,-253.0,10110.0,-1118.0,0
23619.0,-16620.0,2956.0,-2268.0,-343.0,10842.0,-1421.0,0
23641.0,-17444.0,2904.0,-3332.0,464.0,11387.0,-1820.0,0
23663.0,-18044.0,3388.0,-3564.0,1692.0,10879.0,-1912.0,0
23685.0,-18620.0,3944.0,-2836.0,2481.0,10799.0,-1963.0,0
23707.0,-19272.0,1332.0,-2528.0,2600.0,11197.0,-1899.0,0
23729.0,-19376.0,2156.0,-2456.0,2469.0,12626.0,-1513.0,0
23751.0,-20996.0,2384.0,-3000.0,2784.0,13757.0,-1467.0,0
23773.0,-20588.0,784.0,-3468.0,2699.0,14993.0,-1518.0,0
23795.0,-20764.0,1820.0,-3084.0,2687.0,16105.0,-2346.0,0
23817.0,-20948.0,3168.0,-2304.0,3608.0,16390.0,-2360.0,0
23839.0,-24912.0,4412.0,1444.0,4122.0,16921.0,-3246.0,0
23861.0,-24384.0,2868.0,4128.0,11420.0,16563.0,-2871.0,0
23883.0,-26224.0,2208.0,7576.0,20574.0,17615.0,-3245.0,0
23905.0,-26960.0,8008.0,-8792.0,16200.0,20472.0,-1711.0,0
23927.0,-25632.0,9560.0,-7512.0,10096.0,20084.0,-139.0,0
23949.0,-28680.0,10676.0,-1292.0,11543.0,18566.0,685.0,0
23971.0,-16124.0,4736.0,-3000.0,6448.0,19598.0,-9327.0,0
23993.0,-16412.0,7196.0,9604.0,-2131.0,4366.0,3549.0,0
24015.0,-7820.0,5960.0,10976.0,-4191.0,-4503.0,925.0,0
24037.0,-7744.0,3196.0,3940.0,-5799.0,-11002.0,2532.0,0
24059.0,-8808.0,3320.0,1456.0,-9258.0,-17083.0,4612.0,0
24081.0,-9924.0,3968.0,2288.0,-10451.0,-23824.0,5624.0,0
24103.0,-11596.0,2540.0,1548.0,-10884.0,-29160.0,5602.0,0
24125.0,-14060.0,1852.0,688.0,-11197.0,-32768.0,5626.0,0
24147.0,-18260.0,1676.0,-1332.0,-8739.0,-32768.0,4725.0,0
24169.0,-21552.0,44.0,-3856.0,-4471.0,-32768.0,4738.0,0
24191.0,-25396.0,960.0,-5548.0,-2987.0,-32768.0,5678.0,0
24213.0,-29124.0,2468.0,-7028.0,-8241.0,-32768.0,5281.0,0
24235.0,-32768.0,2040.0,-10032.0,-9274.0,-32768.0,3726.0,0
24257.0,-32768.0,2660.0,-15152.0,-6718.0,-32768.0,3282.0,0
24279.0,-32768.0,3524.0,-20132.0,-1808.0,-32768.0,4614.0,0
24301.0,-27864.0,1696.0,-24408.0,-2230.0,-31434.0,3129.0,0
24323.0,-19140.0,-5564.0,-32656.0,-2905.0,-22425.0,1797.0,0
24345.0,-12324.0,-6940.0,-32768.0,3814.0,-7087.0,3395.0,0
24367.0,-10700.0,-3608.0,-32696.0,5170.0,6775.0,-49.0,0
24389.0,-16692.0,-2584.0,-27180.0,389.0,16074.0,-5342.0,0
24411.0,-32768.0,4468.0,32767.0,289.0,-1161.0,-3753.0,0
24433.0,-7768.0,-5460.0,-17612.0,-1728.0,19380.0,-6737.0,0
24455.0,-32768.0,-3680.0,-1832.0,5349.0,16593.0,1146.0,0
24477.0,-16936.0,4740.0,-8424.0,1193.0,20484.0,-443.0,0
24499.0,-25924.0,11812.0,-7192.0,-3108.0,14841.0,2396.0,0
24521.0,-19748.0,644.0,-364.0,-3786.0,12097.0,-1864.0,0
24543.0,-16184.0,92.0,-860.0,-2300.0,10529.0,-1393.0,0
24565.0,-17212.0,2400.0,-868.0,125.0,7737.0,-925.0,0
24587.0,-17516.0,1864.0,-656.0,1255.0,5685.0,-935.0,0
24609.0,-16948.0,2396.0,120.0,1134.0,5130.0,234.0,0
24631.0,-15488.0,4080.0,524.0,-438.0,5228.0,-117.0,0
24653.0,-14476.0,4920.0,-236.0,-1638.0,6051.0,-1118.0,0
24675.0,-15156.0,3976.0,-212.0,-3309.0,6714.0,-2025.0,0
24697.0,-15936.0,2256.0,-1072.0,-5610.0,7250.0,-1849.0,0
24719.0,-16500.0,2456.0,-1096.0,-6556.0,7771.0,-1239.0,0
24741.0,-15864.0,2336.0,-592.0,-6204.0,8935.0,-936.0,0
24763.0,-16000.0,2516.0,-1828.0,-4530.0,10185.0,-921.0,0
24785.0,-16212.0,3864.0,-2616.0,-948.0,10931.0,-188.0,0
24807.0,-16264.0,4400.0,-3224.0,-776.0,11368.0,-905.0,0
24829.0,-17204.0,2176.0,-3208.0,-1463.0,11153.0,-2043.0,0
24851.0,-17848.0,2072.0,-3364.0,-722.0,10619.0,-2277.0,0
24873.0,-18416.0,2384.0,-2980.0,309.0,10358.0,-2581.0,0
24895.0,-19712.0,1964.0,-3192.0,1385.0,11180.0,-2115.0,0
24917.0,-21300.0,676.0,-3020.0,2287.0,12793.0,-2047.0,0
24939.0,-20756.0,568.0,-2916.0,1614.0,14320.0,-1823.0,0
24961.0,-21300.0,1876.0,-3136.0,1243.0,15438.0,-1810.0,0
24983.0,-21836.0,3304.0,-3228.0,2090.0,15818.0,-2397.0,0
25005.0,-21060.0,3464.0,-2212.0,3989.0,15662.0,-1909.0,0
25027.0,-24332.0,2396.0,1308.0,6571.0,16858.0,-1320.0,0
25049.0,-23744.0,6996.0,5320.0,14600.0,15988.0,-1466.0,0
25071.0,-23104.0,3952.0,4280.0,25936.0,18633.0,-1698.0,0
25093.0,-30060.0,2796.0,-1896.0,22768.0,23316.0,-1499.0,0
25115.0,-25636.0,388.0,-2120.0,8487.0,17340.0,-2962.0,0
25137.0,-18132.0,12836.0,-8136.0,23475.0,19454.0,1398.0,0
25159.0,-17396.0,13996.0,-1264.0,7525.0,12885.0,-8589.0,0
25181.0,-30040.0,-956.0,-268.0,-16949.0,4158.0,-4179.0,0
25203.0,-1888.0,9660.0,19412.0,-12039.0,-6413.0,8646.0,0
25225.0,-7780.0,5288.0,6184.0,-9646.0,-11401.0,1873.0,0
25247.0,-7744.0,4108.0,1316.0,-13935.0,-18754.0,5340.0,0
25269.0,-10584.0,3488.0,3900.0,-13958.0,-26025.0,4839.0,0
25291.0,-13100.0,3196.0,2388.0,-12930.0,-31175.0,4724.0,0
25313.0,-16480.0,2848.0,520.0,-13950.0,-32768.0,5173.0,0
25335.0,-20116.0,2360.0,-1700.0,-15029.0,-32768.0,3839.0,0
25357.0,-25044.0,2132.0,-4312.0,-14633.0,-32768.0,3700.0,0
25379.0,-30168.0,3924.0,-7272.0,-17720.0,-32768.0,2286.0,0
25401.0,-32768.0,5416.0,-10376.0,-18100.0,-32768.0,2516.0,0
25423.0,-32768.0,5132.0,-13120.0,-11393.0,-32768.0,959.0,0
25445.0,-31496.0,3180.0,-16316.0,-3133.0,-32768.0,-589.0,0
25467.0,-28500.0,2212.0,-20896.0,4045.0,-32570.0,325.0,0
25489.0,-23328.0,2984.0,-25644.0,3799.0,-26838.0,-982.0,0
25511.0,-18020.0,-24.0,-29324.0,5439.0,-21069.0,992.0,0
25533.0,-12460.0,-2512.0,-26356.0,5166.0,-12425.0,2756.0,0
25555.0,-11400.0,-3408.0,-24188.0,7595.0,-3179.0,2605.0,0
25577.0,-14160.0,-2380.0,-20564.0,5338.0,2245.0,-401.0,0
25599.0,-15432.0,-1860.0,-14280.0,2335.0,8548.0,-594.0,0
25621.0,-17800.0,-1240.0,-11736.0,4975.0,11764.0,131.0,0
25643.0,-18724.0,1228.0,-7708.0,1873.0,13215.0,199.0,0
25665.0,-29944.0,26296.0,32767.0,6609.0,-12012.0,330.0,0
25687.0,-10024.0,-13620.0,-29592.0,-1134.0,11891.0,-9520.0,0
25709.0,-31136.0,-2788.0,7476.0,7017.0,8598.0,-777.0,0
25731.0,-16376.0,3356.0,-4512.0,-2480.0,14370.0,-2103.0,0
25753.0,-20360.0,5368.0,-1124.0,-3913.0,13349.0,1435.0,0
25775.0,-16660.0,4260.0,376.0,-5356.0,13195.0,468.0,0
25797.0,-17708.0,3936.0,-628.0,-2212.0,12375.0,-270.0,0
25819.0,-17820.0,3340.0,-1016.0,633.0,9401.0,-2273.0,0
25841.0,-16648.0,2760.0,-288.0,-559.0,7404.0,-2607.0,0
25863.0,-16708.0,1824.0,240.0,-354.0,6753.0,-2096.0,0
25885.0,-16272.0,2428.0,632.0,248.0,6409.0,-1009.0,0
25907.0,-15208.0,4080.0,712.0,-784.0,6331.0,-735.0,0
25929.0,-15688.0,3284.0,52.0,-1890.0,6514.0,-1382.0,0
25951.0,-16108.0,3196.0,204.0,-1127.0,6566.0,-1210.0,0
25973.0,-15756.0,3452.0,-736.0,-1076.0,6856.0,-1152.0,0
25995.0,-15428.0,2536.0,-1292.0,-1727.0,7509.0,-430.0,0
26017.0,-15740.0,3640.0,-1624.0,-3592.0,9494.0,-897.0,0
26039.0,-16648.0,3512.0,-1676.0,-3790.0,11346.0,-1145.0,0
26061.0,-16940.0,2900.0,-2540.0,-2050.0,12026.0,-1374.0,0
26083.0,-17252.0,3076.0,-3000.0,-1555.0,12233.0,-1744.0,0
26105.0,-18124.0,3496.0,-2952.0,-400.0,11281.0,-2326.0,0
26127.0,-18728.0,3184.0,-2868.0,725.0,10418.0,-2506.0,0
26149.0,-19752.0,1808.0,-2968.0,1313.0,10796.0,-2777.0,0
26171.0,-20088.0,1220.0,-3004.0,2187.0,11521.0,-2629.0,0
26193.0,-19688.0,1272.0,-3440.0,1662.0,12647.0,-2890.0,0
26215.0,-19088.0,2848.0,-3468.0,1001.0,14465.0,-3156.0,0
26237.0,-20664.0,3768.0,-3248.0,1678.0,15310.0,-3288.0,0
26259.0,-21652.0,2768.0,-2660.0,2378.0,14946.0,-3276.0,0
26281.0,-25304.0,3368.0,936.0,2248.0,14938.0,-4556.0,0
26303.0,-22276.0,2728.0,3920.0,7536.0,15133.0,-3470.0,0
26325.0,-23164.0,4400.0,7312.0,13805.0,17241.0,-3656.0,0
26347.0,-23888.0,3884.0,-7592.0,20541.0,24873.0,-2856.0,0
26369.0,-27104.0,-2388.0,7608.0,14606.0,23254.0,-5452.0,0
26391.0,-26532.0,14028.0,-10760.0,6550.0,19795.0,-1511.0,0
26413.0,-24016.0,15400.0,-14900.0,7944.0,19526.0,-2899.0,0
26435.0,-32768.0,7680.0,-12556.0,-11440.0,11193.0,-8602.0,0
26457.0,-10672.0,8972.0,19844.0,-20109.0,-3263.0,4074.0,0
26479.0,-6240.0,2464.0,10736.0,-9907.0,-5787.0,-164.0,0
26501.0,-8288.0,3144.0,4288.0,-4124.0,-14241.0,4599.0,0
26523.0,-9880.0,4168.0,3888.0,-3000.0,-22290.0,5392.0,0
26545.0,-11092.0,2208.0,4292.0,-4056.0,-29630.0,5458.0,0
26567.0,-13136.0,3500.0,3612.0,-3646.0,-32768.0,6100.0,0
26589.0,-17720.0,2256.0,84.0,-5173.0,-32768.0,6145.0,0
26611.0,-22068.0,1284.0,-1576.0,-8701.0,-32768.0,5590.0,0
26633.0,-25508.0,656.0,-2648.0,-5516.0,-32768.0,5181.0,0
26655.0,-30420.0,3312.0,-8092.0,-123.0,-32768.0,7354.0,0
26677.0,-32768.0,7164.0,-10020.0,-5956.0,-32768.0,9875.0,0
26699.0,-32768.0,6348.0,-9220.0,-9409.0,-32768.0,6676.0,0
26721.0,-32768.0,1812.0,-14368.0,-7771.0,-32768.0,3997.0,0
26743.0,-29548.0,7288.0,-20944.0,-3040.0,-32768.0,3655.0,0
26765.0,-25416.0,-2284.0,-27152.0,5851.0,-30610.0,2463.0,0
26787.0,-16020.0,-7412.0,-32768.0,17826.0,-18696.0,8761.0,0
26809.0,-8628.0,-4568.0,-32692.0,15301.0,-3268.0,7090.0,0
26831.0,-11188.0,-4144.0,-28268.0,2926.0,9612.0,-2423.0,0
26853.0,-16676.0,-1808.0,-21004.0,-4106.0,18138.0,-2860.0,0
26875.0,-19616.0,-1204.0,-15096.0,-2224.0,21670.0,-2226.0,0
26897.0,-23048.0,396.0,-11380.0,89.0,23520.0,-747.0,0
26919.0,-32768.0,7280.0,32767.0,5529.0,-7104.0,-3135.0,0
26941.0,5636.0,-20752.0,-1724.0,-4563.0,9770.0,-12021.0,0
26963.0,-32768.0,-15720.0,-5836.0,-1507.0,9231.0,-923.0,0
26985.0,-9856.0,12112.0,-14944.0,-7375.0,23301.0,-3956.0,0
27007.0,-27408.0,-9276.0,-5192.0,-12699.0,14700.0,-5023.0,0
27029.0,-20416.0,-104.0,-1940.0,-5339.0,14070.0,532.0,0
27051.0,-14356.0,3576.0,-1644.0,-4181.0,11309.0,-1050.0,0
27073.0,-15724.0,3636.0,-1272.0,1773.0,8272.0,-1476.0,0
27095.0,-17508.0,4172.0,-340.0,4371.0,5204.0,-1271.0,0
27117.0,-16252.0,2680.0,-164.0,3987.0,4549.0,-1427.0,0
27139.0,-15800.0,3332.0,-732.0,3492.0,5168.0,-183.0,0
27161.0,-14908.0,5424.0,-928.0,405.0,5885.0,-567.0,0
27183.0,-14828.0,4260.0,-1528.0,-5624.0,6429.0,-1545.0,0
27205.0,-15092.0,3924.0,-1428.0,-6793.0,7841.0,-1987.0,0
27227.0,-16452.0,3244.0,-832.0,-6105.0,9004.0,-1714.0,0
27249.0,-17008.0,2712.0,-1404.0,-1959.0,9817.0,-250.0,0
27271.0,-17452.0,4292.0,-2020.0,-1114.0,9376.0,-1066.0,0
27293.0,-16928.0,4308.0,-2032.0,-1153.0,8906.0,-2232.0,0
27315.0,-17724.0,4128.0,-2676.0,-263.0,9243.0,-2076.0,0
27337.0,-18144.0,3060.0,-2936.0,1471.0,9089.0,-2025.0,0
27359.0,-19116.0,2652.0,-3140.0,3324.0,9478.0,-1225.0,0
27381.0,-19524.0,1700.0,-2984.0,3482.0,9923.0,-1399.0,0
27403.0,-19616.0,1984.0,-2764.0,3754.0,11251.0,-741.0,0
27425.0,-19848.0,3292.0,-2888.0,1218.0,11786.0,-1588.0,0
27447.0,-19748.0,2952.0,-2808.0,165.0,13266.0,-2429.0,0
27469.0,-19328.0,3384.0,-2784.0,873.0,14918.0,-2356.0,0
27491.0,-20668.0,3260.0,-1992.0,3263.0,16147.0,-2487.0,0
27513.0,-23900.0,3304.0,936.0,5811.0,17679.0,-2151.0,0
27535.0,-22460.0,3156.0,3200.0,11665.0,17358.0,-2166.0,0
27557.0,-25176.0,1196.0,3492.0,17960.0,18347.0,-2064.0,0
27579.0,-23356.0,5024.0,-4152.0,23499.0,24155.0,77.0,0
27601.0,-25856.0,8756.0,3488.0,14759.0,23138.0,-1026.0,0
27623.0,-25668.0,9168.0,1120.0,8139.0,11293.0,-1674.0,0
27645.0,-20016.0,5780.0,-24000.0,15487.0,30052.0,-6204.0,0
27667.0,-32768.0,5384.0,-12088.0,-7345.0,10394.0,-4271.0,0
27689.0,-9208.0,12256.0,17764.0,-10438.0,-5331.0,4079.0,0
27711.0,-5856.0,2332.0,10396.0,-9810.0,-8501.0,-633.0,0
27733.0,-6988.0,1480.0,2936.0,-4315.0,-14439.0,1801.0,0
27755.0,-8480.0,3120.0,44.0,-3793.0,-21065.0,4580.0,0
27777.0,-9720.0,5520.0,2568.0,-6764.0,-27808.0,5156.0,0
27799.0,-12528.0,3816.0,1540.0,-10857.0,-32768.0,4508.0,0
27821.0,-15816.0,3668.0,-840.0,-11139.0,-32768.0,5405.0,0
27843.0,-20636.0,2660.0,-3120.0,-11682.0,-32768.0,4890.0,0
27865.0,-23868.0,1688.0,-2636.0,-11665.0,-32768.0,4730.0,0
27887.0,-28504.0,2432.0,-4424.0,-8287.0,-32768.0,4578.0,0
27909.0,-31720.0,3420.0,-7056.0,-9715.0,-32768.0,4798.0,0
27931.0,-32768.0,3852.0,-9756.0,-9423.0,-32768.0,3518.0,0
27953.0,-32768.0,2524.0,-13884.0,-5632.0,-32768.0,3057.0,0
27975.0,-32768.0,3084.0,-19104.0,755.0,-32768.0,2850.0,0
27997.0,-26304.0,3328.0,-24984.0,994.0,-32696.0,2308.0,0
28019.0,-19032.0,-4744.0,-32768.0,11714.0,-21654.0,3518.0,0
28041.0,-5068.0,-2076.0,-32768.0,11420.0,-5963.0,8544.0,0
28063.0,-8888.0,-1400.0,-25148.0,10721.0,7617.0,-2634.0,0
28085.0,-15496.0,-2360.0,-24712.0,1119.0,16417.0,-6382.0,0
28107.0,-20056.0,-428.0,-15868.0,-3218.0,19776.0,-2795.0,0
28129.0,-22720.0,836.0,-11536.0,3267.0,22578.0,-25.0,0
28151.0,-18756.0,12688.0,32767.0,-15851.0,2554.0,-1296.0,0
28173.0,-3040.0,-11248.0,-32768.0,5102.0,25035.0,-3993.0,0
28195.0,-32768.0,12388.0,10788.0,15966.0,6395.0,7407.0,0
28217.0,-20700.0,7360.0,-15628.0,-7734.0,20095.0,-1822.0,0
28239.0,-16860.0,1436.0,-1952.0,-5747.0,14222.0,-956.0,0
28261.0,-13816.0,5856.0,-512.0,-2786.0,11307.0,-1339.0,0
28283.0,-17440.0,2764.0,-2164.0,-714.0,8755.0,-4006.0,0
28305.0,-17096.0,2388.0,-1008.0,2074.0,6582.0,-3175.0,0
28327.0,-16736.0,3436.0,476.0,1452.0,5319.0,-1902.0,0
28349.0,-16456.0,2876.0,552.0,-983.0,6342.0,-960.0,0
28371.0,-14544.0,6140.0,-52.0,-2870.0,7335.0,-847.0,0
28393.0,-15012.0,4996.0,-556.0,-8505.0,7637.0,-2700.0,0
28415.0,-15304.0,3668.0,-1060.0,-10345.0,9209.0,-2843.0,0
28437.0,-16532.0,1652.0,-1196.0,-8798.0,10820.0,-2700.0,0
28459.0,-16596.0,2988.0,-1624.0,-3722.0,11136.0,-1939.0,0
28481.0,-17152.0,3056.0,-2296.0,-462.0,11430.0,-1142.0,0
28503.0,-17864.0,2752.0,-2728.0,-141.0,10570.0,-1895.0,0
28525.0,-17868.0,3056.0,-2720.0,-29.0,8803.0,-2578.0,0
28547.0,-18480.0,2400.0,-2816.0,395.0,7983.0,-2982.0,0
28569.0,-19388.0,1312.0,-2604.0,1851.0,8716.0,-2025.0,0
28591.0,-19220.0,1308.0,-2944.0,2074.0,9728.0,-2065.0,0
28613.0,-19644.0,1812.0,-2716.0,1422.0,11528.0,-1794.0,0
28635.0,-19496.0,3032.0,-2204.0,1405.0,13654.0,-1667.0,0
28657.0,-19680.0,2248.0,-2460.0,1610.0,15472.0,-2209.0,0
28679.0,-20188.0,3284.0,-2392.0,2112.0,16240.0,-2184.0,0
28701.0,-20724.0,3272.0,-2040.0,4115.0,16257.0,-2475.0,0
28723.0,-24116.0,1960.0,1652.0,6598.0,16796.0,-2360.0,0
28745.0,-20360.0,5476.0,3060.0,12526.0,16109.0,-3330.0,0
28767.0,-24356.0,4232.0,3076.0,19541.0,19289.0,-2520.0,0
28789.0,-29648.0,5392.0,-8936.0,18256.0,29337.0,-945.0,0
28811.0,-29456.0,3200.0,12044.0,5226.0,20192.0,-3275.0,0
28833.0,-17900.0,7840.0,-2524.0,17404.0,15914.0,-1099.0,0
28855.0,-20788.0,9192.0,-19244.0,13535.0,29877.0,-7171.0,0
28877.0,-32768.0,3928.0,-7520.0,-12393.0,5384.0,-2547.0,0
28899.0,-8652.0,11388.0,15940.0,-8873.0,-5170.0,6279.0,0
28921.0,-6448.0,940.0,6096.0,-12110.0,-7716.0,709.0,0
28943.0,-6708.0,2568.0,-76.0,-6532.0,-13680.0,4887.0,0
28965.0,-6456.0,4204.0,-344.0,-8253.0,-20601.0,5287.0,0
28987.0,-8504.0,4772.0,1328.0,-10978.0,-26342.0,4670.0,0
29009.0,-12260.0,1952.0,-928.0,-10756.0,-31237.0,4076.0,0
29031.0,-13844.0,1464.0,-2488.0,-9044.0,-32768.0,4826.0,0
29053.0,-17352.0,864.0,-2700.0,-7521.0,-32768.0,4343.0,0
29075.0,-21044.0,284.0,-4328.0,-6067.0,-32768.0,4122.0,0
29097.0,-23880.0,2004.0,-4208.0,-6155.0,-32768.0,4966.0,0
29119.0,-28692.0,2440.0,-3860.0,-8429.0,-32768.0,5011.0,0
29141.0,-32768.0,3492.0,-6664.0,-9852.0,-32768.0,3720.0,0
29163.0,-32768.0,2936.0,-10832.0,-6745.0,-32768.0,3448.0,0
29185.0,-32768.0,3396.0,-20468.0,-734.0,-32768.0,4917.0,0
29207.0,-30128.0,6296.0,-23992.0,-7803.0,-32768.0,4400.0,0
29229.0,-17508.0,-3656.0,-32768.0,716.0,-21707.0,1724.0,0
29251.0,-9020.0,-5304.0,-32768.0,8590.0,-2190.0,4946.0,0
29273.0,-11036.0,-1324.0,-32768.0,5873.0,11563.0,-2726.0,0
29295.0,-18608.0,-2284.0,-29320.0,1773.0,19847.0,-7865.0,0
29317.0,-32768.0,4648.0,32767.0,1139.0,-4774.0,1104.0,0
29339.0,-4864.0,-7844.0,196.0,6507.0,12630.0,-10585.0,0
29361.0,-32768.0,-19820.0,-22372.0,1872.0,22278.0,-727.0,0
29383.0,-12320.0,6192.0,2000.0,6956.0,19108.0,1268.0,0
29405.0,-26212.0,17316.0,-21740.0,1977.0,18850.0,5472.0,0
29427.0,-19368.0,-2444.0,184.0,-195.0,10284.0,-3529.0,0
29449.0,-15064.0,2456.0,104.0,1235.0,9745.0,466.0,0
29471.0,-16488.0,5560.0,-1620.0,4369.0,8000.0,-644.0,0
29493.0,-16916.0,3796.0,-1488.0,4235.0,6365.0,-1984.0,0
29515.0,-16224.0,2528.0,-776.0,2068.0,5606.0,-355.0,0
29537.0,-16836.0,3140.0,-932.0,-1380.0,5959.0,-840.0,0
29559.0,-15388.0,5192.0,-1664.0,-4925.0,5641.0,-335.0,0
29581.0,-14340.0,5136.0,-1232.0,-8153.0,6744.0,-1571.0,0
29603.0,-15768.0,3652.0,-1440.0,-7621.0,8013.0,-2485.0,0
29625.0,-16236.0,2288.0,-1300.0,-5244.0,8606.0,-1877.0,0
29647.0,-16660.0,2008.0,-1480.0,-2654.0,8470.0,-1291.0,0
29669.0,-16572.0,3924.0,-2064.0,-27.0,7930.0,-481.0,0
29691.0,-16444.0,5204.0,-2492.0,-1598.0,7864.0,-1529.0,0
29713.0,-16536.0,3296.0,-3436.0,-1938.0,8459.0,-1806.0,0
29735.0,-17368.0,3568.0,-3764.0,-1111.0,8196.0,-2033.0,0
29757.0,-18168.0,2436.0,-3492.0,336.0,7862.0,-2080.0,0
29779.0,-17896.0,2732.0,-3368.0,2424.0,8424.0,-1395.0,0
29801.0,-19276.0,1144.0,-3524.0,2365.0,9521.0,-1854.0,0
29823.0,-19908.0,2564.0,-2784.0,3311.0,10922.0,-1249.0,0
29845.0,-18940.0,1740.0,-3272.0,2251.0,12600.0,-1630.0,0
29867.0,-19624.0,2884.0,-3232.0,1771.0,14550.0,-2429.0,0
29889.0,-21292.0,4172.0,-2916.0,2134.0,15122.0,-2957.0,0
29911.0,-22912.0,2296.0,-1152.0,4690.0,15417.0,-2926.0,0
29933.0,-24220.0,4940.0,1924.0,8752.0,15793.0,-3796.0,0
29955.0,-25216.0,608.0,7000.0,15136.0,16506.0,-2078.0,0
29977.0,-26616.0,1024.0,5428.0,23815.0,19086.0,-1741.0,0
29999.0,-28272.0,5036.0,-14740.0,20169.0,28765.0,-1048.0,0
30021.0,-26036.0,11912.0,2504.0,9077.0,21132.0,680.0,0
30043.0,-24188.0,7976.0,-2860.0,10881.0,15862.0,-2683.0,0
30065.0,-6364.0,10992.0,-7200.0,8008.0,22515.0,-9816.0,0
30087.0,-22056.0,3232.0,-188.0,-9432.0,1291.0,3982.0,0
30109.0,-5092.0,7352.0,10712.0,-6797.0,-6067.0,3988.0,0
30131.0,-4764.0,2988.0,4896.0,-7362.0,-8915.0,1513.0,0
30153.0,-5604.0,2436.0,-2944.0,-5020.0,-13016.0,2857.0,0
30175.0,-7556.0,3520.0,-236.0,-11353.0,-20464.0,3838.0,0
30197.0,-8480.0,3752.0,832.0,-11102.0,-25056.0,3777.0,0
30219.0,-11740.0,2680.0,-3108.0,-12277.0,-28556.0,3918.0,0
30241.0,-15012.0,2508.0,-2152.0,-14257.0,-32768.0,4034.0,0
30263.0,-17488.0,1196.0,-4016.0,-12179.0,-32768.0,3265.0,0
30285.0,-20688.0,2076.0,-4044.0,-12416.0,-32768.0,2654.0,0
30307.0,-24024.0,1788.0,-4468.0,-10877.0,-32768.0,1453.0,0
30329.0,-27848.0,2224.0,-4212.0,-9897.0,-32768.0,1394.0,0
30351.0,-32104.0,3976.0,-6164.0,-7506.0,-32768.0,640.0,0
30373.0,-32768.0,3264.0,-9124.0,-2652.0,-32768.0,1012.0,0
30395.0,-32768.0,3000.0,-14396.0,1362.0,-32768.0,1737.0,0
30417.0,-28096.0,2100.0,-18736.0,3681.0,-32768.0,2337.0,0
30439.0,-18976.0,1112.0,-27156.0,4844.0,-25274.0,3151.0,0
30461.0,-12468.0,-2640.0,-32768.0,10006.0,-11730.0,3686.0,0
30483.0,-10180.0,-1752.0,-30856.0,10608.0,3070.0,2065.0,0
30505.0,-14200.0,200.0,-26444.0,3245.0,14214.0,-3627.0,0
30527.0,-32320.0,3432.0,31560.0,-5467.0,4571.0,-7359.0,0
30549.0,-9472.0,-11628.0,-13616.0,-6795.0,22807.0,-8711.0,0
30571.0,-32768.0,-12456.0,-8720.0,2502.0,19175.0,-510.0,0
30593.0,-18252.0,68.0,-2948.0,3328.0,19999.0,2006.0,0
30615.0,-26792.0,20328.0,-7744.0,208.0,16849.0,8683.0,0
30637.0,-17372.0,4012.0,-20.0,-1365.0,10986.0,88.0,0
30659.0,-13984.0,5060.0,-1632.0,-931.0,10319.0,-1628.0,0
30681.0,-17032.0,3252.0,-784.0,4723.0,7232.0,-1908.0,0
30703.0,-18248.0,536.0,-544.0,5770.0,6494.0,-703.0,0
30725.0,-16976.0,1380.0,84.0,3497.0,6070.0,1477.0,0
30747.0,-16592.0,3168.0,-256.0,4006.0,5714.0,876.0,0
30769.0,-15824.0,3908.0,-276.0,5508.0,4875.0,73.0,0
30791.0,-15524.0,5276.0,96.0,7671.0,4698.0,-366.0,0
30813.0,-16088.0,3520.0,-1236.0,9896.0,4354.0,-750.0,0
30835.0,-16364.0,4164.0,-1460.0,6832.0,4664.0,-581.0,0
30857.0,-16272.0,3944.0,-1664.0,4775.0,4531.0,-897.0,0
30879.0,-16588.0,4116.0,-2228.0,2951.0,4517.0,-1594.0,0
30901.0,-15392.0,4676.0,-2460.0,1758.0,4877.0,-1921.0,0
30923.0,-15544.0,4228.0,-2472.0,-1627.0,5312.0,-2470.0,0
30945.0,-15952.0,3988.0,-2824.0,-2077.0,6836.0,-3024.0,0
30967.0,-15888.0,3132.0,-2668.0,-3284.0,8810.0,-3346.0,0
30989.0,-16548.0,1744.0,-2760.0,-4335.0,11225.0,-3975.0,0
31011.0,-18944.0,2264.0,-2564.0,-4850.0,13276.0,-4093.0,0
31033.0,-19768.0,852.0,-2868.0,-5131.0,14587.0,-4330.0,0
31055.0,-19952.0,2500.0,-2936.0,-3907.0,14812.0,-3417.0,0
31077.0,-19300.0,3436.0,-3340.0,-2542.0,15167.0,-3409.0,0
31099.0,-20128.0,4584.0,-3144.0,-1183.0,15345.0,-3943.0,0
31121.0,-20980.0,3184.0,-3060.0,715.0,14832.0,-4283.0,0
31143.0,-21776.0,1640.0,-1464.0,3796.0,15644.0,-4302.0,0
31165.0,-25616.0,6024.0,1708.0,4682.0,16648.0,-5416.0,0
31187.0,-25080.0,1876.0,5924.0,8011.0,18413.0,-4401.0,0
31209.0,-23648.0,7484.0,2196.0,14767.0,20699.0,-3165.0,0
31231.0,-28544.0,984.0,-11236.0,16080.0,20565.0,-3564.0,0
31253.0,-23996.0,9548.0,-9064.0,4280.0,21843.0,-2813.0,0
31275.0,-19840.0,5976.0,-9320.0,10463.0,22707.0,-1937.0,0
31297.0,-27676.0,12288.0,-3128.0,-1509.0,16331.0,-9583.0,0
31319.0,-12788.0,5504.0,11768.0,-17758.0,2589.0,-2840.0,0
31341.0,-5616.0,4704.0,8900.0,-13800.0,-2739.0,-3516.0,0
31363.0,-7064.0,2584.0,1744.0,-7069.0,-8945.0,-3002.0,0
31385.0,-8088.0,3780.0,672.0,-7100.0,-15628.0,-736.0,0
31407.0,-8948.0,6872.0,3436.0,-9451.0,-21690.0,29.0,0
31429.0,-10124.0,6160.0,-84.0,-9349.0,-27579.0,-1003.0,0
31451.0,-12708.0,5036.0,-1896.0,-9857.0,-32243.0,-231.0,0
31473.0,-15692.0,6784.0,-2448.0,-11126.0,-32768.0,1582.0,0
31495.0,-18616.0,8484.0,-4284.0,-11481.0,-32768.0,2781.0,0
31517.0,-22228.0,8828.0,-5008.0,-15059.0,-32768.0,3391.0,0
31539.0,-25608.0,9800.0,-3384.0,-17636.0,-32768.0,4489.0,0
31561.0,-30508.0,8588.0,-4220.0,-16381.0,-32768.0,4742.0,0
31583.0,-32768.0,6020.0,-7144.0,-11536.0,-32768.0,5227.0,0
31605.0,-32768.0,1376.0,-13588.0,-1992.0,-32768.0,4919.0,0
31627.0,-32768.0,2920.0,-18632.0,3621.0,-32768.0,7655.0,0
31649.0,-29196.0,-4136.0,-21476.0,4996.0,-32768.0,2433.0,0
31671.0,-18772.0,2276.0,-31788.0,9191.0,-22787.0,6063.0,0
31693.0,-9392.0,-6800.0,-32768.0,16466.0,-8971.0,2613.0,0
31715.0,-10052.0,-2912.0,-31316.0,11493.0,4642.0,142.0,0
31737.0,-18344.0,-1760.0,-26612.0,3436.0,14434.0,-3859.0,0
31759.0,-32768.0,6416.0,32767.0,-11819.0,-4645.0,-7424.0,0
31781.0,-7272.0,-8688.0,-20740.0,-3109.0,25521.0,-8101.0,0
31803.0,-32768.0,-13696.0,-3996.0,5297.0,16607.0,-3297.0,0
31825.0,-16724.0,10888.0,-9660.0,-448.0,20491.0,3144.0,0
31847.0,-22900.0,8016.0,-3228.0,-2505.0,14413.0,2081.0,0
31869.0,-14872.0,3220.0,512.0,-1929.0,11311.0,-1868.0,0
31891.0,-15776.0,3904.0,-832.0,2075.0,9367.0,-1518.0,0
31913.0,-16516.0,2868.0,-544.0,6027.0,6604.0,-2080.0,0
31935.0,-16080.0,1360.0,328.0,4503.0,6085.0,-747.0,0
31957.0,-17624.0,2088.0,-320.0,4300.0,5420.0,529.0,0
31979.0,-16544.0,4192.0,352.0,2416.0,5007.0,396.0,0
32001.0,-14752.0,5432.0,128.0,3608.0,5232.0,-334.0,0
32023.0,-14808.0,4972.0,-380.0,4069.0,5749.0,-1076.0,0
32045.0,-15036.0,4592.0,-324.0,4134.0,6728.0,-798.0,0
32067.0,-15652.0,4388.0,-896.0,2619.0,7364.0,-1083.0,0
32089.0,-15824.0,3532.0,-932.0,176.0,7825.0,-792.0,0
32111.0,-15656.0,4168.0,-1928.0,-1133.0,8355.0,-946.0,0
32133.0,-17020.0,3792.0,-3224.0,-4801.0,9295.0,-2011.0,0
32155.0,-16416.0,3728.0,-2988.0,-6457.0,10905.0,-3467.0,0
32177.0,-17348.0,4196.0,-3308.0,-5915.0,12773.0,-3359.0,0
32199.0,-18080.0,3988.0,-2936.0,-3231.0,13042.0,-2264.0,0
32221.0,-19080.0,2244.0,-2604.0,-2517.0,12561.0,-3307.0,0
32243.0,-18516.0,2168.0,-2824.0,-1477.0,13157.0,-2391.0,0
32265.0,-20004.0,2608.0,-3316.0,-1095.0,14611.0,-1999.0,0
32287.0,-19836.0,2704.0,-3456.0,-218.0,15277.0,-1977.0,0
32309.0,-19468.0,3088.0,-4092.0,541.0,15746.0,-2155.0,0
32331.0,-20856.0,3824.0,-3816.0,1896.0,15950.0,-2357.0,0
32353.0,-23196.0,2452.0,-1876.0,4122.0,16170.0,-2010.0,0
32375.0,-24944.0,3524.0,588.0,7683.0,15322.0,-2461.0,0
32397.0,-25632.0,-364.0,4308.0,13489.0,14430.0,-1739.0,0
32419.0,-24404.0,3084.0,3432.0,22165.0,17799.0,-1181.0,0
32441.0,-25972.0,5784.0,-8104.0,23790.0,19570.0,706.0,0
32463.0,-23504.0,10884.0,-2712.0,5332.0,14579.0,729.0,0
32485.0,-20700.0,10164.0,-9152.0,14258.0,18825.0,-931.0,0
32507.0,-21724.0,10312.0,-2968.0,2761.0,14890.0,-4325.0,0
32529.0,-21112.0,4928.0,10300.0,-15140.0,361.0,717.0,0
32551.0,-1208.0,7696.0,12996.0,-7132.0,-4499.0,1182.0,0
32573.0,-7312.0,1468.0,3316.0,-2582.0,-10055.0,-1678.0,0
32595.0,-8732.0,2476.0,-876.0,-4863.0,-16321.0,821.0,0
32617.0,-9096.0,4240.0,1880.0,-7677.0,-21498.0,3352.0,0
32639.0,-9844.0,5044.0,2204.0,-8510.0,-26228.0,3247.0,0
32661.0,-12952.0,3100.0,-624.0,-9729.0,-30057.0,2562.0,0
32683.0,-16012.0,2432.0,-2136.0,-10280.0,-32768.0,2674.0,0
32705.0,-19168.0,3780.0,-3336.0,-10194.0,-32768.0,2415.0,0
32727.0,-21660.0,3684.0,-4396.0,-9086.0,-32768.0,2743.0,0
32749.0,-24628.0,2612.0,-3824.0,-8154.0,-32768.0,2280.0,0
32771.0,-28008.0,1656.0,-4220.0,-6875.0,-32768.0,1669.0,0
32793.0,-30700.0,2940.0,-6036.0,-2968.0,-32768.0,2067.0,0
32815.0,-32768.0,1424.0,-8508.0,1968.0,-32768.0,3001.0,0
32837.0,-32768.0,1288.0,-12900.0,6002.0,-32768.0,3394.0,0
32859.0,-30160.0,2156.0,-21996.0,6217.0,-30525.0,4201.0,0
32881.0,-20448.0,3672.0,-27376.0,4235.0,-24924.0,3857.0,0
32903.0,-12272.0,-3636.0,-31588.0,13360.0,-12914.0,4879.0,0
32925.0,-11604.0,-3940.0,-30356.0,10634.0,2331.0,1911.0,0
32947.0,-15272.0,-2260.0,-27660.0,-546.0,12918.0,-3100.0,0
32969.0,-20068.0,-588.0,-23820.0,-4675.0,21004.0,-2659.0,0
32991.0,-27448.0,-5604.0,32767.0,-10563.0,-3851.0,-4859.0,0
33013.0,-12744.0,-21872.0,-32768.0,-11057.0,21855.0,-9414.0,0
33035.0,-24560.0,6796.0,7472.0,15097.0,15542.0,7019.0,0
33057.0,-25928.0,17592.0,-21496.0,3374.0,21897.0,4480.0,0
33079.0,-20512.0,-1972.0,392.0,-4436.0,12345.0,-4400.0,0
33101.0,-11920.0,7508.0,-1312.0,1527.0,12500.0,69.0,0
33123.0,-17144.0,4632.0,-1700.0,5212.0,9791.0,-2698.0,0
33145.0,-17564.0,2384.0,-936.0,2564.0,7624.0,-2902.0,0
33167.0,-17372.0,2048.0,-732.0,117.0,7013.0,-1442.0,0
33189.0,-16372.0,3344.0,-232.0,-210.0,6427.0,-1042.0,0
33211.0,-15060.0,4024.0,-924.0,-2149.0,6682.0,-1468.0,0
33233.0,-15532.0,4004.0,-1416.0,-5591.0,7315.0,-1527.0,0
33255.0,-15708.0,3464.0,-1764.0,-7614.0,8501.0,-2372.0,0
33277.0,-16008.0,2992.0,-1376.0,-8643.0,10085.0,-3145.0,0
33299.0,-16384.0,2460.0,-1792.0,-7925.0,10853.0,-3322.0,0
33321.0,-17376.0,2812.0,-1700.0,-5368.0,10970.0,-2892.0,0
33343.0,-17536.0,3340.0,-1984.0,-3466.0,9973.0,-3500.0,0
33365.0,-18596.0,2716.0,-2792.0,-1311.0,9388.0,-2918.0,0
33387.0,-18492.0,2160.0,-2924.0,202.0,9107.0,-3020.0,0
33409.0,-19232.0,832.0,-2452.0,917.0,9689.0,-2846.0,0
33431.0,-19012.0,1380.0,-2412.0,942.0,10766.0,-3007.0,0
33453.0,-20396.0,600.0,-2648.0,73.0,12214.0,-2685.0,0
33475.0,-19792.0,1100.0,-2928.0,-266.0,13633.0,-2870.0,0
33497.0,-19544.0,1612.0,-2688.0,-664.0,15507.0,-3292.0,0
33519.0,-19836.0,4216.0,-2496.0,152.0,16797.0,-3232.0,0
33541.0,-20440.0,4336.0,-1900.0,3431.0,17224.0,-3039.0,0
33563.0,-24296.0,2180.0,1736.0,7727.0,17696.0,-2415.0,0
33585.0,-21468.0,3104.0,2348.0,14410.0,16492.0,-3334.0,0
33607.0,-25560.0,828.0,796.0,22205.0,19605.0,-2612.0,0
33629.0,-29444.0,6256.0,-4008.0,13976.0,24723.0,-2578.0,0
33651.0,-26708.0,8076.0,-1924.0,7642.0,9199.0,-718.0,0
33673.0,-21240.0,12364.0,-8732.0,19333.0,20580.0,-2795.0,0
33695.0,-17460.0,9388.0,-1900.0,3775.0,18295.0,-13444.0,0
33717.0,-25304.0,2112.0,5232.0,-16730.0,5033.0,2417.0,0
33739.0,-3736.0,8064.0,14224.0,-10490.0,-1966.0,3605.0,0
33761.0,-7648.0,2072.0,5580.0,-9065.0,-8489.0,2117.0,0
33783.0,-8352.0,3704.0,1480.0,-9823.0,-15194.0,4785.0,0
33805.0,-9304.0,5292.0,3380.0,-12373.0,-22011.0,5242.0,0
33827.0,-11652.0,4180.0,2924.0,-12336.0,-27432.0,4852.0,0
33849.0,-14812.0,3560.0,728.0,-11580.0,-32768.0,4647.0,0
33871.0,-17572.0,2640.0,-1640.0,-10580.0,-32768.0,4696.0,0
33893.0,-20424.0,4204.0,-2532.0,-9118.0,-32768.0,4965.0,0
33915.0,-24144.0,4776.0,-3580.0,-8872.0,-32768.0,5735.0,0
33937.0,-29328.0,5832.0,-6264.0,-10529.0,-32768.0,4992.0,0
33959.0,-32768.0,3864.0,-8056.0,-7792.0,-32768.0,4570.0,0
33981.0,-32768.0,4312.0,-14644.0,-2641.0,-32768.0,6951.0,0
34003.0,-32768.0,4616.0,-19300.0,2286.0,-32768.0,8674.0,0
34025.0,-31976.0,-3540.0,-20780.0,7610.0,-32768.0,4328.0,0
34047.0,-24260.0,-5752.0,-28332.0,9143.0,-29368.0,5777.0,0
34069.0,-13764.0,3832.0,-32768.0,10661.0,-16109.0,6433.0,0
34091.0,-7780.0,-9432.0,-32768.0,18653.0,-4710.0,-1097.0,0
34113.0,-11196.0,-5400.0,-27884.0,5370.0,10352.0,-137.0,0
34135.0,-18980.0,52.0,-25096.0,-3964.0,20014.0,-4462.0,0
34157.0,-32132.0,1156.0,21720.0,-10116.0,10504.0,-5005.0,0
34179.0,-5444.0,-8836.0,19532.0,-8223.0,16935.0,-8044.0,0
34201.0,-32768.0,-17352.0,-32768.0,-2112.0,24434.0,550.0,0
34223.0,-17960.0,13392.0,-10244.0,10029.0,20366.0,-1062.0,0
34245.0,-26676.0,11468.0,-7852.0,-1554.0,15190.0,641.0,0
34267.0,-16072.0,1872.0,-188.0,-1160.0,12764.0,-2985.0,0
34289.0,-15224.0,3856.0,-716.0,-1245.0,9525.0,-2465.0,0
34311.0,-21241.300604517946,549.5159088396094,5348.777196896787,267.9826832586033,8272.32006492486,-3393.257710437541,0
34333.0,-9489.494622707645,5429.953247249728,6108.954335347903,887.1566442187021,3656.8454036110224,1477.30715848562,0
34355.0,-8634.150420454747,2807.0855158541854,5570.049976055451,-3974.2978509912346,-2877.7993531417274,811.7190721527124,0
34377.0,-8423.487479038627,1443.432979617599,3446.8384309982903,-4242.431294400873,-8283.129790893321,1341.2899731218884,0
34399.0,-8733.456510951353,2375.753994208689,2767.9066826949784,-5084.871148041125,-13471.083723528407,2288.2994636839976,0
34421.0,-10475.925113936475,1927.0559166870785,2213.597452109607,-5244.237685080481,-18491.067698959996,2261.0765670653614,0
34443.0,-12732.206625406534,320.9632498154335,672.0690864174369,-6404.227619352737,-22754.950921277294,2699.4129726865267,0
34465.0,-15911.203178504566,947.6560664378021,-85.6241085139788,-8625.246291863446,-26056.839241424914,2771.9230883751443,0
34487.0,-18329.212119360935,1253.1656329289601,-1897.5431169020214,-8266.403375328176,-28247.619019773538,2754.0905581019397,0
34509.0,-20029.677378203924,2579.6214970514307,-3720.2697229415458,-6382.458220398836,-30285.699937614267,3485.5038655102103,0
34531.0,-22481.431840638666,1988.4358710186864,-4965.706296714098,-8622.160031487765,-30683.737857897602,3191.833163076236,0
34553.0,-24154.80267429051,1872.018488625674,-4771.520930698376,-8313.394816574966,-31065.93899034296,2896.6618518994514,0
34575.0,-24700.171805632275,2039.3301570843744,-4497.518969433193,-7597.077041688422,-30802.95327928005,1759.8012082277744,0
34597.0,-24971.843364331107,1594.49904852929,-4793.084688880306,-6997.124398482489,-29673.8487669566,910.6512266055238,0
34619.0,-25761.293099182516,2234.9445666518095,-5871.059566835161,-2442.554005344175,-28029.945991566517,785.9725975101534,0
34641.0,-24749.194943923343,2057.764078465143,-8549.525213004788,-298.12793396194996,-24936.388643643262,812.9962649258138,0
34663.0,-23594.686602288722,1014.7104675278357,-10688.510152868113,1082.349032092437,-22281.895815718683,633.4626754187065,0
34685.0,-22128.510033010414,-1703.2312782087117,-18866.333451858427,4050.985777371256,-18959.060660174346,3201.1052246968366,0
34707.0,-17493.534730952175,4.755357820882163,-17834.768349146958,2506.5527258192874,-15741.236570341656,3151.8424994592783,0
34729.0,-13494.760698171265,-1958.392614025955,-15021.977264856498,3166.5385510405663,-9914.457429921813,887.8725807740155,0
34751.0,-13457.584843464356,-1616.4530528548817,-15747.219198926363,4451.047412183572,-2040.5160922740781,-482.4186045932547,0
34773.0,-15460.193734512779,-1796.2456168184838,-13515.685876485064,4715.418694778997,4815.738845614876,-387.9856716143008,0
34795.0,-17772.91818945234,831.7504570577271,-12967.32663083585,7857.521712585075,9436.231743156512,663.2414772985048,0
34817.0,-23025.551892723564,-534.8452335398342,9051.191571962016,4306.353722072428,5777.0200138733935,-1908.7532059971988,0
34839.0,-12603.617388553814,-3861.6913613894153,18651.997454603254,-1224.9418375308605,8572.31528020941,-1090.296159050927,0
34861.0,-17969.268215834738,-3200.685484110032,-5514.539224701304,2457.631868668388,12110.022940935467,-1489.299606411628,0
34883.0,-19134.15300149736,941.9656704032516,-1666.1355209062083,3664.4704542661275,11410.109522323248,1200.8680575570856,0
34905.0,-22383.313951601,8845.311579516507,-5796.340369712218,-1570.6139082472264,10718.90668269462,2288.53267668366,0
34927.0,-20344.474579601963,1755.371043391355,3203.4910130742455,-6938.374205256956,8976.110693849574,510.2721836362053,0
34949.0,-13759.593126600534,1047.7499825207408,906.2821352960798,-3343.0188204747215,10056.12221626369,705.5054182881145,0
34971.0,-17280.521095379874,859.9993428478424,127.84924215349987,-328.7036545031476,8856.71458100286,850.9641877730445,0
34993.0,-17031.58386854037,902.7449448895159,-125.22876905705682,2199.7236503702998,8221.85993355297,1777.6192965259788,0
35015.0,-16808.25651980029,2539.3914928942468,41.611236316512816,1150.836609872276,7290.184746362337,2405.1434135497807,0
35037.0,-16027.782688282427,3688.629876753883,-184.5611970289903,-2403.1974515067027,5952.991570022768,166.5547530612001,0
35059.0,-15813.233986758043,3321.219847369996,-729.6290814890414,-3652.276407216401,5663.541889625569,82.71145654845365,0
35081.0,-16128.28757128793,3014.5824426283907,-1277.8039641773594,-5880.005867530161,6221.183242979554,74.32479431704733,0
35103.0,-16343.81361961954,2838.930428640176,-750.1382595373404,-6744.77112620824,6315.32785565356,-306.427238247047,0
35125.0,-16172.487484975649,1730.913186678655,-535.4466602492442,-4855.428396220155,6041.464873326551,-860.2780264584254,0
35147.0,-16003.443439312896,2824.4425551121058,-84.21606651891587,-2601.1207509596675,6146.837549997982,-270.0609545939025,0
35169.0,-15811.332240658085,2925.3564849184127,-965.8104422912072,-169.25309122264719,6623.089892869616,52.82576439736596,0
35191.0,-16051.57546213661,2638.412152807977,-1916.5939637382096,265.2392137278698,7429.508892936567,-107.14818469774761,0
35213.0,-16317.647398564168,2949.8993565400683,-2014.7932309367861,861.386174489633,7640.829189346671,-414.58219847592176,0
35235.0,-16789.85661725695,2722.9074582520147,-2413.3374685247077,265.5492699919213,8131.418292840699,-461.22825159186954,0
35257.0,-16872.710867137757,2146.5273211464214,-2922.2096746777124,-75.64033793647968,7642.496935367438,-911.2305067992864,0
35279.0,-16951.08164255244,3434.830978439273,-2844.9765416088694,722.5394533223993,7889.834881619136,-827.2775482695683,0
35301.0,-17327.790439169672,3012.234413204631,-3422.62261821218,844.8425303297732,7429.9622569917865,-1364.5409098757416,0
35323.0,-17701.279159609574,3046.6196711239686,-3566.151203970074,2100.6396360164936,7411.42323401873,-789.4929140928544,0
35345.0,-18706.012615514665,1651.6165106885114,-2693.3387828010345,2500.230289720183,7392.222978715754,-863.7839385557445,0
35367.0,-17970.305535362455,398.27039075985067,-3504.4646421057655,2239.1595986361267,8487.321174384315,-461.20015872612305,0
35389.0,-17300.08223066726,854.005871827245,-3671.2489207019735,1496.4854511947233,9863.434590947709,-538.5582945614891,0
35411.0,-17058.64625149758,2533.969146717593,-4028.438002668319,-88.64410690184917,10890.175800380113,-1191.760413815017,0
35433.0,-17813.353041177106,4069.805858449225,-4444.054099545229,-390.34973203515574,12300.713762880247,-1357.9068206904337,0
35455.0,-18723.172639084554,4116.933575521786,-4680.417834158112,773.9599250594607,13200.83818111166,-1508.313029723211,0
35477.0,-18520.00894837064,3808.9770333098013,-5057.866833636927,3548.921235598985,12774.651779274658,-1404.016894094793,0
35499.0,-19680.300114578415,1905.1893816587183,-3892.683304887692,5422.8083502637755,13093.477743655296,-1138.293196464606,0
35521.0,-21462.59496225782,3293.915579805539,-2312.0995976748773,6787.794231540756,13912.61608942445,-1650.9161474721577,0
35543.0,-22891.24682740633,1022.8919099217305,272.7348247206916,10272.904884663425,14473.281499817156,-1059.3261066948667,0
35565.0,-25951.675607582838,1494.5594822493113,1522.058704668858,15258.242777045622,15605.347083280487,-1217.5468683879724,0
35587.0,-24035.00799975502,4853.099594392307,-2448.187526013254,20567.24788015085,20519.866237219634,-245.2076676352526,0
35609.0,-26233.87081546641,3118.4616924272486,-7658.2741070083075,14124.432473056982,21130.96046457352,-1688.9518445864599,0
35631.0,-26779.477179932954,8705.609192578391,1152.700964545197,1862.365249326956,10530.952499078068,978.3200292912807,0
35653.0,-19539.12633307391,7334.145904016744,-5356.5390674343835,13298.402157425615,15174.581230869962,-2110.011108668033,0
35675.0,-8232.844482030645,3221.932171946394,-12897.878614956735,5906.8239032594165,21744.631335827235,-9323.532496524376,0
35697.0,-15884.451964770724,1946.5540079764162,2274.1109817860997,-2924.6495493435987,1839.263591797298,3920.948006262672,0
35719.0,-5650.935941344179,6360.665895071773,6652.748050916391,-1162.8045384586108,-3115.7547717768543,3052.1403756280097,0
35741.0,-4191.669468482987,1215.0187457729317,4884.662159857239,-1282.5625756950878,-9670.846188959991,2200.847364356275,0
35763.0,-6309.418070914013,1278.399749697185,-1330.3827091417088,-2483.757990865903,-14049.829350025706,3833.2894776521744,0
35785.0,-7953.751749565775,3496.0883370443235,753.397941398625,-8859.257990872402,-19684.122342374783,4788.659140965475,0
35807.0,-10717.35156902371,1322.8447450760207,77.52055516129711,-11584.57856007976,-24501.6702837028,4221.4063715163,0
35829.0,-13006.840702488957,1052.3853378911767,-1403.6957867731924,-14250.154072504356,-28888.457431400522,3264.71181982254,0
35851.0,-16127.240879355351,1089.3930900195942,-2404.073145798665,-14571.025143353227,-32168.431159298132,2256.477805327341,0
35873.0,-19697.64364504572,625.3453996208402,-3615.039664379096,-13512.486282422502,-32866.40052516124,1089.4139308797428,0
35895.0,-22473.34893164456,235.13287801744028,-4979.480683128731,-8534.931528644578,-32578.998748940816,361.7290614027577,0
35917.0,-24410.540970582457,1051.268877246314,-7049.2359563269565,-5149.984591877385,-32684.207205470473,1022.6329455237092,0
35939.0,-28177.35611293402,4417.592385877182,-10283.386344604201,-5618.482377068833,-32829.83178118144,1388.0242496444087,0
35961.0,-28981.51045879199,4814.95596211867,-8962.782300738114,-8012.251982164903,-32760.81129002971,1124.5762714689881,0
35983.0,-27443.498824776205,4757.891826476725,-10488.58613572597,-6035.131658740816,-32840.31312784038,945.4658473025097,0
36005.0,-27714.23401166924,3473.5496515021723,-11910.739849441143,-1400.7345878114531,-32057.666326996812,1813.8459121805486,0
36027.0,-26147.333470023063,1008.0385536737618,-13530.795548599393,1037.3777208861386,-28694.280636403473,1841.5254017709917,0
36049.0,-22561.29674896754,-616.8562802737844,-18983.181834412775,2828.4528331950473,-23848.78919408044,3604.5731521838757,0
36071.0,-17049.446793510466,1919.667933986417,-21522.160192371703,1510.4933514141342,-17009.142009387582,4686.64956522673,0
36093.0,-12517.66947790159,-224.9440800329473,-21091.662592360964,2691.2927543621636,-9462.44013383877,2534.0428105901474,0
36115.0,-12433.04690434858,-2933.6220567620567,-20280.211665328014,3377.6394891076366,1240.266587678415,1135.4111852659637,0
36137.0,-14784.200172598194,-2191.9570266885535,-17201.78088749038,3720.27012675177,8581.794918552456,-82.83261056102576,0
36159.0,-17197.3830839743,144.87242631929732,-13703.20262302602,-23.487203797068915,14062.292647722228,-716.0902212357494,0
36181.0,-23847.22353303756,1121.517161621957,2936.037902373316,-1567.564733278886,13604.089535764522,-975.3696527535218,0
36203.0,-26611.452314512233,-2263.5692229040947,32752.261477875443,-12278.475950855553,-2073.6229727429536,-2076.978498834011,0
36225.0,-12564.79390554922,-6820.068140838265,-13670.575646119763,7400.395991615107,13509.202810881643,-2442.1864313216024,0
36247.0,-29299.448658170153,1213.8344289012234,1511.5707112411365,7124.707446331499,9736.160759833947,2603.3641771290218,0
36269.0,-19115.151382636996,22783.755894150116,-15006.08268380671,2512.9649921000314,16118.065006115543,6622.987090063407,0
36291.0,-23101.0880234304,3992.106392949675,914.1185410528989,-4345.506885633235,8812.575802556017,-795.7085564474388,0
36313.0,-15777.83638262606,-114.76441285976848,-98.87018641764082,-4655.247723416168,10502.176605970795,-787.3184477860005,0
36335.0,-16416.326944486333,1603.5241515135174,-146.97701876896892,-719.9365502757622,10259.571402330046,-51.74650295068436,0
36357.0,-17729.61592476178,2282.0013311938897,-393.4275434508971,823.574446680892,8223.28412879298,386.5911881060587,0
36379.0,-17386.19919127353,1803.825191578148,-273.04535992896587,1187.7923791825378,6297.878545537411,1287.4723514785194,0
36401.0,-16873.09290318082,3431.8478749249252,-95.65422605053247,365.715350652334,5118.111760658716,286.533557367529,0
36423.0,-14927.982692229698,4503.332342423439,-167.96311353035415,-633.030503769935,4423.238117529001,-633.5486236540218,0
36445.0,-16183.850403412423,3084.430095248905,-463.15319589677136,-898.1964447290982,4636.365759895264,-553.4572472538641,0
36467.0,-15788.189616747422,3309.3364128567,-987.7534364788611,-5328.181143546054,5524.204238125509,-612.1203908351018,0
36489.0,-15437.149360936119,3345.960825460905,-783.9876953908332,-9370.456137597082,6902.1805167904695,-948.1819786890928,0
36511.0,-15991.91026200202,2488.7143150134348,-79.85470630487221,-8339.357830317194,7961.292536131389,-1059.4299194246576,0
36533.0,-16512.002829853638,2457.556397547404,-493.1752120525362,-5699.9474238729,8699.88981593776,-1057.676778707676,0
36555.0,-16081.05299769026,2692.049317993856,-1261.2528396310809,-2439.712471013744,8912.928828790933,-351.04952994577764,0
36577.0,-15992.38590114132,3419.1714548977,-1908.0522127192266,-588.9969192203131,9903.827034650923,-45.0141825714949,0
36599.0,-16459.307070314062,3102.118316769494,-2521.3767433129688,683.0357455214156,9681.701962230414,-0.8985117730628678,0
36621.0,-16806.353271289176,2980.2165918209234,-2916.6626984837794,-41.05265908396372,9606.210170242897,-657.9066955510965,0
36643.0,-16987.231857777944,2850.9642472112077,-3148.617635149774,199.06745993825527,9642.558894422995,-911.1558161103216,0
36665.0,-18416.425681006527,2254.777954295038,-4220.773553233081,651.0176274049194,9135.064638241713,-1153.9849674456038,0
36687.0,-18720.505926298876,2417.99129706688,-4051.9808355057826,1584.2979532762402,8694.398464301585,-894.3331606538259,0
36709.0,-18524.833254382374,1443.8969036544759,-3597.2648298242616,1959.7777618635016,8507.259612409032,-598.0187502299921,0
36731.0,-19075.51348381127,1731.7367865959554,-3684.6154214252097,1199.0183662752495,9780.771012167821,-348.424799263879,0
36753.0,-18244.960757487366,2568.9875364015743,-4129.274358522623,-451.57388362222196,11481.165479233054,-845.8636105683182,0
36775.0,-18152.696072336832,3845.1903370400473,-3938.6691805742494,55.22117157358134,12658.936260007204,-1483.1390331550517,0
36797.0,-19242.95117192371,4340.915093195609,-3858.203018448061,784.1308537258508,14124.410693109743,-1716.382006690007,0
36819.0,-20047.538940053473,4446.036165407135,-3204.3441273101407,3476.527981568763,14926.054884830794,-1427.7525628987873,0
36841.0,-21518.494057386975,2770.3706621137144,-2132.930197682471,5887.116854639695,16007.251622093972,-1249.085412370533,0
36863.0,-24608.72608764947,4023.296723646809,534.7694966712858,8055.206919244226,16234.603019724002,-1725.5529619735244,0
36885.0,-25826.967492531538,877.691575248703,3962.9111213226997,12268.960214307888,15818.080584276504,-929.6627283551117,0
36907.0,-24559.602307299596,204.34233719067643,3929.326914252035,17669.866450298203,16334.880852449562,-2550.3074189312842,0
36929.0,-26861.751978785338,6199.240934720207,-8359.98925452781,18157.7234760696,24699.2597758404,-1522.564111426996,0
36951.0,-25056.694472055926,5621.768856822897,5360.6877536247885,8093.142458806022,20397.11043545923,-4544.698481658602,0
36973.0,-18995.83674711089,9230.731418096602,-1892.2737419924097,8526.487036429011,10767.397371519313,-4921.463482082793,0
36995.0,-13216.582527350098,4871.550003864211,-20162.371304809185,8310.581848546019,22157.134377961713,-5300.490409992212,0
37017.0,-30591.407615577376,7904.701472915812,-5462.802154792588,-6802.445171029913,2967.5980909143136,-443.0848236220972,0
37039.0,-10110.234216059845,9834.196936888027,11710.35406184646,-7750.832124704906,-7024.043351727851,2215.001520045861,0
37061.0,-4776.316354148228,3595.3562888777474,10241.696528657476,-14092.059870525954,-12578.494318763838,-2136.908608466643,0
37083.0,-6353.188199607633,1761.6042501734516,3410.4918146464547,-7391.331344384903,-17980.838485596774,-1012.5559358881146,0
37105.0,-9835.10734305963,3297.5914953504907,2130.011333093523,-7754.498586321372,-24930.617452964543,1400.5734342137193,0
37127.0,-12815.85094677295,5044.948986095957,1929.5325487434325,-8902.400495149088,-30681.917803083237,2366.807401082017,0
37149.0,-16588.53918312761,4979.647592708607,700.8582707557401,-9290.164445065231,-33103.13717888926,2918.7170861897753,0
37171.0,-21324.50427504723,3948.3345389078145,-1692.689009360221,-12630.042749190674,-32646.169809388222,2697.1310120478533,0
37193.0,-26388.67238720811,2678.814865178913,-3268.1292269575156,-13213.628648638638,-33010.78825001872,2129.125140499701,0
37215.0,-28648.109232073853,1737.4208624588985,-5176.007581889027,-8884.807393814655,-32725.59372889923,2096.617649102711,0
37237.0,-31756.03382156683,2217.7115090855586,-11533.229016961077,-3655.2018325745516,-32826.43095701275,2338.1358416465,0
37259.0,-32629.176169482875,2713.4044776812175,-13766.175963735546,-4484.609125457969,-32903.86572189486,2736.3267450686903,0
37281.0,-32233.110961126746,3902.5575432584988,-18008.985789410443,-4863.372235769187,-32985.06391722963,2950.7415101822326,0
37303.0,-28751.937624151924,3618.523035959504,-19737.4326406458,-6668.149451568143,-32903.62849070126,441.2245828813738,0
37325.0,-23731.804138733914,1830.391441698535,-19622.80690366834,-4248.840046772294,-29193.06155837295,702.1896068102725,0
37347.0,-20766.930401311278,-1320.186358084647,-20624.622650681617,1424.6640275980901,-24648.76779152939,1249.0006023801477,0
37369.0,-15489.259999838263,-2608.8384599970364,-24930.179781802108,8944.410965109973,-17002.52293888422,3544.545733302904,0
37391.0,-10542.246505317704,-1075.288344135831,-24237.7439177526,8945.654651541752,-8857.863036508124,2833.380384397054,0
37413.0,-11160.4906097775,781.9805246729028,-21845.369382777157,7761.220834586188,843.1161633126478,423.7969585104387,0
37435.0,-14129.18148577188,-1279.9302712654146,-15780.87149820561,5095.888451242178,7607.603579784042,-642.7185057877665,0
37457.0,-17123.16468278482,-1027.2129258636066,-9936.944443061395,3376.3008270589257,11852.00331936766,833.2453535620141,0
37479.0,-18756.72415016443,2133.230838263934,-4962.573775305329,-1673.1688499243364,12846.108443606596,1532.9018952424922,0
37501.0,-19187.96821683335,1127.4240289510867,-5442.264344856904,-4209.695098467082,11675.729918215897,831.6339910027135,0
37523.0,-25159.12685928804,6285.77255741723,30497.516349636797,-7251.332323275243,1499.509644562388,-262.5857126550904,0
37545.0,-10198.289815251008,-862.5462135376,20961.652657223414,-402.6057853570093,6759.036709394668,-1035.7010146301016,0
37567.0,-28404.566136354308,-11241.937706495017,-13236.051331042023,7326.357096839761,7491.36639737778,754.5793558407419,0
37589.0,-13053.5258623217,4744.322047168194,5485.461127950767,5081.077213493223,10828.535780063798,841.7756330318759,0
37611.0,-18048.087828212054,1779.2228962575746,2392.1664252234254,3294.2848646168995,12813.866549938384,335.6304002280208,0
37633.0,-19613.734210332736,7619.680935424813,-5157.454025460818,-2632.195456933467,14194.64947239204,3289.702942525292,0
37655.0,-16076.851502327703,1022.0820052286509,-227.57845915969202,-922.3808020863745,11766.342145113227,-1944.0268689926434,0
37677.0,-18168.59203584145,2033.2220219831438,-545.1072983036793,3467.172296418491,9380.978147765383,-66.12611682284218,0
37699.0,-16830.516233126928,3106.974337335002,480.63290634415955,2769.294044230596,7352.343138196643,-927.9362510649056,0
37721.0,-17085.55048009633,2163.894825605495,1130.2452382129254,1689.0393826238874,6915.439133754701,101.2253845646905,0
37743.0,-15140.862081504876,4654.601667667838,988.3648452690302,2416.5007396147093,6783.160036881557,1035.716648361308,0
37765.0,-15275.980098330014,5647.387210946003,783.9873310580347,293.61729665089376,6807.441762462024,-404.5595730440853,0
37787.0,-14882.260301012457,3672.7405826193817,107.4819965712658,-1475.8121150238271,6577.338559180213,-1111.93297795865,0
37809.0,-15496.844470805463,2889.870822199887,-187.3276765938368,-2337.158150902122,7207.575270403884,-669.7529181884256,0
37831.0,-15885.673199799992,3161.7534726921726,-600.5736748836173,-2963.6307333457685,8388.460622144057,150.74104637627542,0
37853.0,-16068.526615144787,3555.9735479869164,-694.2756894182594,-2466.7503778030596,9106.153222525245,-38.33351835029451,0
37875.0,-15544.693058141316,3292.1083347963236,-701.5173345044101,-2811.7574923968755,9893.75952724772,-282.9389423461283,0
37897.0,-15980.503650357918,3737.0805364895778,-1534.1351309741628,-2824.0070609259574,10778.559217240225,-757.7681806908553,0
37919.0,-16288.248340528175,4198.059084749341,-1812.2002821798171,-2998.374362160168,11529.94718726878,-1066.1301241909373,0
37941.0,-16253.200110849095,4271.666059923944,-2654.188496018174,-2636.763525275505,11132.42685471724,-921.7931979720541,0
37963.0,-16497.32705797631,3506.8660013290314,-3254.1290702270044,-2729.0533488582214,10724.821989042925,-1242.0443176309898,0
37985.0,-18113.809313122707,2449.0449098840945,-3841.700561400644,-1243.760543887167,9940.364306458501,-1580.9272013478796,0
38007.0,-18883.527795506383,2568.3947124435263,-4208.363684576023,379.6441539329455,8560.829429541764,-1030.156956339673,0
38029.0,-18916.776530278963,1161.0777096256236,-3830.929662681916,1915.7285122125245,8166.187132195877,-898.5215430707159,0
38051.0,-18128.924911057144,2376.4219310987614,-3807.3309081363705,1668.1821021761505,8890.20114687065,-398.8438304223462,0
38073.0,-18700.81181688112,3405.9662038242886,-3418.0880694203147,927.8321032223234,10287.705185314031,-1123.9544960100952,0
38095.0,-18274.980895384302,2732.548110095695,-3699.9592497980434,758.1838708080232,12156.589599055886,-1696.5652102421184,0
38117.0,-18743.99314980139,3719.3002015724446,-3877.7657574189625,1102.8394322417098,13466.309171283334,-2035.0445038746145,0
38139.0,-19880.112293311147,3767.239990114378,-3508.578337324466,1470.094938229713,14552.515353893632,-1831.6965444989496,0
38161.0,-22935.650021575148,3274.676308313045,-2513.8730032287644,2286.0113445264287,14454.249752567193,-2124.184887379541,0
38183.0,-21241.402216132992,4520.692028878757,-1276.523407163072,7332.498310475761,14013.302119436774,-2277.9979359435074,0
38205.0,-23675.305574692862,2710.764776649648,2390.404526625643,9577.404389460675,15153.105529163375,-1983.8903780986839,0
38227.0,-24700.09730598347,-195.88734797826626,3972.272924701823,13696.921557081387,15568.350566076342,-1870.350098517563,0
38249.0,-22796.847606849893,6514.435810913104,-3550.8235676130575,19884.119475727563,20046.44811716962,539.7672360427302,0
38271.0,-29263.153111483203,6173.908513068084,-504.29006629396014,12378.02203044174,22963.471953259537,-807.9775329398097,0
38293.0,-25453.607468215985,9030.260534630657,11250.641585285983,-353.9539136326391,11555.826837963203,-4058.7112513250745,0
38315.0,-12359.842641319912,10517.763746682283,-2479.3436010931346,20233.75718617169,15969.271992034062,-5221.781839117478,0
38337.0,-9634.796421460425,7710.900307489414,-14690.706604868792,8438.264037139352,20418.374740855896,-6864.136634753318,0
38359.0,-23380.531272160628,3242.7066399926043,4615.895403989221,-7645.354492397562,4287.941117865683,4976.28927231184,0
38381.0,-6405.287359393006,11379.524984516482,11744.773021181183,-3694.3090144354155,-5777.288621377912,5730.077264130175,0
38403.0,-6254.533085038954,2032.2248866789478,9266.678079289883,-7823.013912873765,-11828.332208031432,-3.6778781198170285,0
38425.0,-6366.485143158821,1150.1640502091664,2331.500883723555,-3622.5216236070532,-17751.708602288025,1068.3136154471242,0
38447.0,-9708.50084572649,3861.473981062024,317.2353193133612,-6455.881446558778,-23377.762674254045,4066.430429257083,0
38469.0,-11428.57614061409,5836.31169117617,1840.2683574955363,-11520.461649726209,-29580.98792734861,3300.4362256431414,0
38491.0,-14910.395315654167,3493.9945825366794,-330.70562573455976,-14713.135152490655,-33051.925941138594,3079.4879706865095,0
38513.0,-17933.721450081513,2720.561661865287,-1544.749731775771,-18643.905283710934,-32812.568776561006,1695.1819945280574,0
38535.0,-22087.73527315867,818.243725120894,-3048.9478759026842,-15654.84590669901,-33000.37877520302,444.4121956629054,0
38557.0,-26262.652555699853,65.54592380676569,-4887.695306796786,-6554.752967246711,-32447.05214520138,1113.2037849197236,0
38579.0,-30402.599495370145,3190.2449622717777,-8310.530296244848,-4268.525841242419,-32799.50068734905,2415.6446558204475,0
38601.0,-32899.598637519215,3321.6940813600786,-14626.515127385124,-6251.830984441476,-32893.982112752434,2480.050242837845,0
38623.0,-32562.291957531015,2277.418774691725,-18625.724515998045,-8914.573125691948,-32527.693543769834,-245.67329367527026,0
38645.0,-32617.953362165765,-29.37292953775279,-22011.088591736778,-3727.959001549708,-32867.184892551806,-1213.5919874227682,0
38667.0,-24637.70853480529,2490.9595445215227,-26124.00415901161,-1572.0904523866573,-29208.201056822705,-1916.999392948761,0
38689.0,-16526.209636109557,3214.7956784373628,-31208.558206368853,5369.19826674048,-22165.947413865862,-2183.763636937468,0
38711.0,-11109.253834133564,-4949.445461355996,-30437.996952753405,14928.121820602186,-10533.59400255013,1824.0586215116114,0
38733.0,-11052.227122243856,-1941.2126538384066,-25149.979874190587,11385.133027862224,2789.542614158002,2194.975506706238,0
38755.0,-16290.441653842789,2147.3373433894585,-20965.99010576342,3095.2651524955536,11434.806458458996,-2745.9589299127897,0
38777.0,-18959.125179348066,61.52063363929587,-15237.578185323362,195.09791820167317,15966.600269669667,-3111.4894863700147,0
38799.0,-30982.766092899554,10439.545382956352,32698.657762361756,3431.157871824288,6196.895101551135,-1904.2262203442392,0
38821.0,-12568.717049076136,-2779.1981967651623,9677.147606783812,-8003.4577985110545,12608.987398848045,-343.2558762250573,0
38843.0,-26864.263196450607,-10715.339023431194,-28099.33431843623,1601.5617473246937,20628.091690543253,-2021.8584138353272,0
38865.0,-18687.99911498377,9610.579575941663,1814.0205473482347,2393.8031106443177,12896.272510522222,1524.5250226172304,0
38887.0,-21107.92362736711,11601.817607412391,-8011.608873916711,-489.2558181735583,14334.408687209552,448.7001614967409,0
38909.0,-19768.905367949734,-1036.295450089781,32.24230764782621,-5729.877353304956,12614.54045599955,-370.3463001613175,0
38931.0,-12634.053306843447,6309.1923399813995,-1449.3990083188507,-3408.373372800212,11518.365396404184,705.7547761931988,0
38953.0,-18142.571541634592,2457.2572552855713,-1392.8701774485178,-2741.4252696139506,9647.739305823954,-1975.6519775989302,0
38975.0,-16826.12447363847,3317.8443697213415,-500.5303749931387,-156.0989202868313,7651.643805094047,-1573.2802363271715,0
38997.0,-16566.992881938022,2126.802437365817,92.97920797760221,-633.7509570699679,6813.732750450852,-820.4685488554084,0
39019.0,-16608.154462378712,3127.8682291323044,786.6613656375393,-1568.2715902396642,6975.035332062845,-1409.3851350892435,0
39041.0,-15610.381642105182,2213.414060294179,477.3890686603007,-3200.1786336079094,7365.248878928191,-1543.074038118005,0
39063.0,-16108.900945530819,2773.2587635599707,-148.63632509515799,-4033.733853976284,6992.692680216117,-2037.0545831345828,0
39085.0,-15768.41975759829,3045.81491194975,-233.79263741149512,-5564.020458239419,7593.163923918998,-1518.5245866449382,0
39107.0,-16014.507414144944,1581.0181898016397,-2415.5466277254477,-7123.320756803886,8040.96212704442,-1708.1989174285507,0
39129.0,-16297.815883255947,1989.9895970639989,-2387.7079606575253,-8661.515933369541,8383.781165630182,-1986.1500413837086,0
39151.0,-16819.349865485223,1120.5528919688338,-2154.384845860295,-6830.995704196113,8723.419790753427,-1777.840440179465,0
39173.0,-16837.6178719702,1975.9206033422238,-2163.076976483141,-3081.1346215491017,8311.677314706092,-1282.0766430148433,0
39195.0,-16518.85082521846,1582.4319037719927,-3091.885075327979,-128.98361838033514,7842.161710125536,-1346.6467401947273,0
39217.0,-16747.40063826825,2201.1795795713224,-2475.647585284446,1856.554535534864,8087.600176157139,-881.5169367274478,0
39239.0,-16931.033654168674,2204.0266037421743,-2591.11062200602,3131.2344422901183,8485.963410878157,-1098.340440472795,0
39261.0,-17809.13307312853,1955.438753839277,-3017.7440583749567,3269.361897479296,8518.548565078787,-1458.2153779578218,0
39283.0,-17660.010692908392,2482.3843563386913,-2541.006633279189,2391.286378085392,9147.315530560008,-1925.1257991307057,0
39305.0,-19400.19977827075,2884.256786547503,-2944.4353870712976,3226.705009274573,10527.286941129005,-1570.9389619934545,0
39327.0,-19853.45149675926,1000.4061623537885,-3381.2481777620283,3388.7989543959093,12370.86631878818,-3148.207735847181,0
39349.0,-20484.818684204703,457.56212148548303,-3587.221540666036,2825.243492374773,14680.412846717327,-3135.1354169150663,0
39371.0,-21750.47379963093,2036.4018456840388,-3569.0801413718345,2604.9558179274463,15531.638858806553,-3074.986304392793,0
39393.0,-21660.802616975183,1382.5803303283317,-3519.6009624067774,4183.791072617957,15327.558049755808,-3460.2751074352186,0
39415.0,-25802.857499625516,874.2528676106322,-616.7071795368647,5153.480075890101,15827.928441565533,-2878.7702041738044,0
39437.0,-20542.86025872358,4331.62974503323,1185.8634495040951,10148.810238494674,15095.6785695401,-3295.2322687316505,0
39459.0,-24951.047249313204,2666.169882034348,4963.456990727525,14012.122724273451,15685.418896851292,-3264.8651301458735,0
39481.0,-22681.961532276695,4328.484675119503,2991.3617295286313,20278.518464762914,15947.35449042806,-5190.0582227921805,0
39503.0,-30736.993382378972,-14.185273952074425,-3429.5547067509847,15102.536366154336,14644.609626624107,-6370.762645627921,0
39525.0,-20502.50329598765,7077.926005642033,-5374.8027259182745,11340.358070653883,15425.9934840925,-3520.935346875131,0
39547.0,-14915.292437819675,11419.598623713675,-5722.991256739874,14230.503062429336,20542.036014464127,-2627.7501468397163,0
39569.0,-32038.293664919867,3342.1901937582957,2016.0943034434829,-5203.965346790674,15258.809988608797,-1680.864969242047,0
39591.0,-8839.43636553561,10321.661663792866,13320.488631693619,-14015.368562208621,4192.579864724618,6373.953995748241,0
39613.0,-7557.0622010503785,3241.12664646099,9187.122553824234,-16588.25870046965,-2786.3963944775487,4766.642255981582,0
39635.0,-6639.168062528504,4669.701970630512,3612.1372223894846,-11875.985093573063,-10007.197958627796,5039.310892960324,0
39657.0,-7563.699726760746,2944.465102583156,2544.6683045602135,-12420.950285993822,-18167.7214122502,4315.337049472741,0
39679.0,-10063.497190328617,1254.8537140340798,2916.7647452269016,-12777.703574706808,-25022.497025287965,4346.603152601602,0
39701.0,-12773.4663742143,513.8520637243333,-81.77778210950257,-11167.128221666986,-30119.373974353417,4431.015638820507,0
39723.0,-17438.20426254834,-1220.4945874180362,-1781.6438886585197,-10615.306729642707,-32834.70845694842,4037.9764183331376,0
39745.0,-19685.572152298664,-2011.695747587865,-4448.932644829628,-9606.474596236867,-32689.19860722338,3950.1967710490226,0
39767.0,-24899.432978622073,-228.4244919161299,-5695.942544608553,-7005.179563094791,-32669.241334647122,3779.8308594681644,0
39789.0,-26826.99182267629,-610.0956304955213,-7138.356148328239,-8213.08562930201,-32780.33854807454,3187.1791665464116,0
39811.0,-29303.550850846368,1330.3708706225611,-8838.940653533853,-9756.557897442402,-32668.261958222585,2923.0091520628866,0
39833.0,-30942.90074983106,1457.1515026613165,-9419.78518606441,-10316.070229171668,-32806.88515508803,1767.9677400692456,0
39855.0,-29604.609778441714,576.6166328406408,-8931.939884523925,-7387.577277793433,-32870.81406549245,512.2475617811782,0
39877.0,-29989.431828402365,-1205.1719147735346,-11494.303305298772,-1754.3965285821948,-32745.157086019928,409.2259605392859,0
39899.0,-24449.443206655495,-2819.287653942753,-15865.78044763033,2463.1125329191946,-29455.82565801411,-806.7458765297031,0
39921.0,-19706.532997551873,1291.922082556997,-21782.23113497427,5485.7928106747595,-21659.16298830003,1246.2891064545472,0
39943.0,-14032.060904013764,-106.46363753054135,-25554.29121933963,8501.792865215537,-16042.546998226779,1171.7481112790983,0
39965.0,-10816.432643252452,-4382.025974652181,-23225.150035228948,10357.668953480257,-5696.531548402046,2175.894883960568,0
39987.0,-13504.995998694907,-3579.6438530308524,-21780.7481786381,9311.540567633863,4652.339122348977,-145.6894388171292,0
40009.0,-16029.50894747606,-787.9226973476797,-19134.315085170736,1640.8276633166558,11685.634785873995,-2691.8020842439573,0
40031.0,-17670.36303379396,-1636.6443278528375,-15864.970642274739,-248.0802817428105,16663.10302408147,-2472.0822668393066,0
40053.0,-32738.27416272206,-2276.9402145719096,24947.552653409944,3489.989329696159,7395.56591810555,-388.20677657019223,0
40075.0,-10937.858808772628,2646.553608319369,20328.76701144121,6161.093826507659,10103.203449660401,-1678.5653416084554,0
40097.0,-32647.07097573491,-5812.530302397,-21292.83400398125,9352.870302765383,15021.244808725116,3034.0371264974788,0
40119.0,-16515.25278533593,8306.708258125835,-7997.543089792748,8540.383609857166,15810.647844918527,2556.5821724061634,0
40141.0,-22316.836430349187,17176.753370233804,-7815.395416299444,2264.222790882581,13966.774708313684,3547.2490296591423,0
40163.0,-19760.91900327825,947.0174677141183,1508.990563451771,753.3212736968186,10525.337378684299,-2017.9766153648059,0
40185.0,-14951.767265978791,3148.870516552953,-530.9981876481753,2329.6037139845716,10161.848908118132,469.29972407862294,0
40207.0,-16749.877552268445,4227.945590459565,-775.9597365403243,2071.907721643465,7946.897755437358,617.3881652528704,0
40229.0,-17060.41044725727,3315.0864083721513,-533.1494933108785,4494.555982306659,5824.361864631881,-706.608359941605,0
40251.0,-16100.651916542729,3926.9179489901894,909.5348735002909,6043.9468872327,4491.825598303414,-35.889511894626295,0
40273.0,-15059.185569212523,3889.8473591774605,661.5133669130958,5091.66337300016,3876.112727763719,-794.4760159300104,0
40295.0,-15892.985388693154,3408.066201338886,-66.25815651274543,5586.511373598043,4016.072828856303,-560.1969428485269,0
40317.0,-15781.674077567004,4425.41561717254,-331.11274176020294,4758.426665704396,4147.467137136906,-597.4181980868261,0
40339.0,-16195.047007209136,3399.9888883697245,-232.77576803370044,3495.2109113830907,4278.232107056672,-1194.9651251887904,0
40361.0,-15679.86959017923,3926.3655000490535,-174.0308565715303,3895.712956370962,4553.412543714036,-733.5874454870856,0
40383.0,-15636.319378465832,4239.080636062153,-736.6532464571309,4120.41866979788,5346.6611633664525,-175.13798724566553,0
40405.0,-16242.919825547264,3861.7452138785475,-836.8665723779242,4996.748301049414,4997.655662967222,-937.1934542738305,0
40427.0,-16025.769115536003,3615.484068774145,-1790.675138290368,2927.3127866379336,5498.017413390857,-1329.2093410349335,0
40449.0,-16073.545521975235,3661.437793010474,-1574.9888201114643,1522.765784085211,6162.093928036875,-1611.2360516726808,0
40471.0,-15982.259591178528,3030.6356120490477,-1883.1243912182965,882.9365732201294,6506.919592292292,-2243.21368387881,0
40493.0,-16569.903308047727,3826.3696612828294,-2251.558842960083,645.8171719849518,7389.289808295635,-2305.1594887383512,0
40515.0,-17170.659693176643,2371.826668155712,-2935.0040991202,934.477263820741,7540.739575460743,-2510.2218617658077,0
40537.0,-17877.969513587137,2952.265918082042,-2480.6148330570704,451.8724444807243,8040.986025953496,-2500.0013437748917,0
40559.0,-17878.066043722232,2855.4822354228486,-2891.499413076231,-2346.3127612952317,9572.323118265145,-2558.8945951676287,0
40581.0,-17689.219481110544,3213.2878768806027,-3285.3719882314967,-5134.537236956122,12340.487081658119,-2950.3932615612507,0
40603.0,-17983.696356931458,5563.92920287963,-3675.1408592463526,-9027.448747254712,15881.947952642058,-3608.939891947247,0
40625.0,-18963.05840145288,2585.7228964845613,-3528.297574891734,-12840.903075340853,19249.83157836182,-6653.935444360732,0
40647.0,-21261.26026222174,3375.9251841997693,-3302.889883583554,-10403.742621189216,20074.775258320704,-7097.990447509033,0
40669.0,-22577.034733252032,2976.92114047291,-2746.0740286572336,-5753.270043845991,17953.176064606232,-6160.873230802669,0
40691.0,-22671.180345623314,1494.561221095786,-661.0686896922193,-139.68673118188303,16236.912733072173,-4920.064915770921,0
40713.0,-22339.795152106093,4967.7901135609445,285.5836127986312,3925.8058902966427,15013.710068470938,-5266.706449584007,0
40735.0,-22736.771865770028,3389.659882891495,4508.064313725532,5980.103319235459,17476.87618549407,-4902.705544399308,0
40757.0,-24804.48778353969,4073.84551363955,1681.989739281664,8993.143413165302,19289.838843538193,-4990.663503008237,0
40779.0,-25318.548778323686,13290.583267000417,-5395.138307603436,9507.44440435125,22630.120924148396,-2802.8545541912026,0
40801.0,-26021.517199006157,2123.0164326050553,-519.1687308655294,5305.136403969642,14319.464689776383,-5677.90281734972,0
