Timestamp,Ax,Ay,Az,Gx,Gy,Gz,Label
1047.0,-16164.0,2872.0,-1204.0,3300.0,-869.0,670.0,1
1069.0,-16380.0,3776.0,-504.0,-284.0,1222.0,1330.0,1
1091.0,-18024.0,3664.0,-3960.0,-3079.0,1154.0,1152.0,1
1113.0,-15648.0,2164.0,3384.0,-2278.0,-971.0,-492.0,1
1135.0,-15076.0,2380.0,3908.0,111.0,-2846.0,-653.0,1
1157.0,-15756.0,3652.0,5176.0,-499.0,-3916.0,-108.0,1
1179.0,-16852.0,5040.0,1608.0,-977.0,-4646.0,1618.0,1
1201.0,-15712.0,7268.0,-720.0,-2170.0,-5768.0,2439.0,1
1223.0,-16356.0,2440.0,1396.0,-2588.0,-7973.0,-1390.0,1
1245.0,-15796.0,-516.0,3848.0,1203.0,-8111.0,-1178.0,1
1267.0,-14408.0,2560.0,-1172.0,1905.0,-5274.0,2254.0,1
1289.0,-14060.0,984.0,-856.0,-3353.0,-3063.0,3396.0,1
1311.0,-13580.0,-2556.0,-2484.0,-5738.0,-1730.0,827.0,1
1333.0,-13280.0,-952.0,-1444.0,-8401.0,923.0,-3520.0,1
1355.0,-13336.0,-224.0,-3872.0,-9833.0,4738.0,-4557.0,1
1377.0,-11424.0,460.0,-3816.0,-11048.0,7858.0,-3925.0,1
1399.0,-23848.0,344.0,-32768.0,-13277.0,21703.0,3950.0,1
1421.0,-7904.0,5408.0,-7364.0,7762.0,-3613.0,1883.0,1
1443.0,-28012.0,18360.0,24716.0,5608.0,-5020.0,7225.0,1
1465.0,-15696.0,7264.0,-9112.0,4043.0,3692.0,954.0,1
1487.0,-15048.0,404.0,1644.0,-2023.0,1349.0,276.0,1
1509.0,-16476.0,716.0,-656.0,-3579.0,-163.0,-257.0,1
1531.0,-15756.0,1724.0,-896.0,-1466.0,2193.0,1728.0,1
1553.0,-19492.0,872.0,1236.0,2331.0,107.0,1640.0,1
1575.0,-17064.0,3120.0,-1172.0,707.0,-670.0,372.0,1
1597.0,-15440.0,4764.0,-1460.0,440.0,163.0,-19.0,1
1619.0,-16276.0,3124.0,-688.0,-601.0,-62.0,-1565.0,1
1641.0,-16128.0,2492.0,-836.0,548.0,-72.0,-1877.0,1
1663.0,-16116.0,1864.0,60.0,1162.0,413.0,-1499.0,1
1685.0,-16176.0,2592.0,-332.0,2280.0,954.0,-697.0,1
1707.0,-16140.0,2776.0,-716.0,963.0,1116.0,-1377.0,1
1729.0,-16464.0,2796.0,-808.0,-1055.0,696.0,-1984.0,1
1751.0,-16012.0,2024.0,-320.0,-67.0,1617.0,-1765.0,1
1773.0,-15908.0,2048.0,-108.0,-125.0,2794.0,-1327.0,1
1795.0,-16580.0,524.0,-152.0,-809.0,4205.0,-1058.0,1
1817.0,-18512.0,-460.0,-1000.0,-438.0,5498.0,-233.0,1
1839.0,-16964.0,1816.0,-1196.0,-1179.0,6525.0,441.0,1
1861.0,-16996.0,2888.0,-480.0,-1674.0,7411.0,335.0,1
1883.0,-20436.0,1768.0,1284.0,-4398.0,5719.0,-497.0,1
1905.0,-22172.0,5820.0,-2312.0,5425.0,4191.0,1071.0,1
1927.0,-18384.0,7244.0,1760.0,-649.0,4860.0,237.0,1
1949.0,-14328.0,5872.0,12204.0,-7968.0,2110.0,2051.0,1
1971.0,-10496.0,1560.0,14880.0,-6336.0,-5269.0,-757.0,1
1993.0,-12380.0,1840.0,11328.0,-4489.0,-11553.0,-980.0,1
2015.0,-15016.0,2580.0,3644.0,-4764.0,-13405.0,-1566.0,1
2037.0,-16832.0,2736.0,-3004.0,-5332.0,-10451.0,-12.0,1
2059.0,-20212.0,-672.0,-14904.0,6031.0,-6876.0,520.0,1
2081.0,-15924.0,3676.0,-17348.0,-5001.0,-1869.0,1588.0,1
2103.0,-16828.0,4108.0,-9508.0,-7385.0,-2895.0,267.0,1
2125.0,-13940.0,-1820.0,-4348.0,-1997.0,-1001.0,-2784.0,1
2147.0,-16324.0,76.0,852.0,3831.0,257.0,-987.0,1
2169.0,-17620.0,280.0,-952.0,13321.0,-2044.0,-1622.0,1
2191.0,-17548.0,4612.0,2240.0,9828.0,-3063.0,1204.0,1
2213.0,-15628.0,3356.0,2816.0,4924.0,-4159.0,1617.0,1
2235.0,-15332.0,6500.0,1816.0,2923.0,-4577.0,4275.0,1
2257.0,-15664.0,4900.0,916.0,-1929.0,-5062.0,173.0,1
2279.0,-17480.0,-2676.0,1828.0,1412.0,-5559.0,-4093.0,1
2301.0,-16060.0,-1064.0,11368.0,9091.0,-4512.0,-1752.0,1
2323.0,-11016.0,2888.0,14568.0,6106.0,-3515.0,-448.0,1
2345.0,-23068.0,820.0,-10648.0,-3422.0,-5293.0,5370.0,1
2367.0,-18256.0,14916.0,-1572.0,-13314.0,-8503.0,10420.0,1
2389.0,-14900.0,-8672.0,252.0,-5683.0,-11956.0,-6973.0,1
2411.0,-14736.0,1020.0,-2776.0,4907.0,-6923.0,61.0,1
2433.0,-12960.0,1036.0,-3552.0,7214.0,-1506.0,-1048.0,1
2455.0,-13440.0,2096.0,-3656.0,3599.0,3750.0,2678.0,1
2477.0,-15196.0,6012.0,-1044.0,-7317.0,6229.0,1823.0,1
2499.0,-19048.0,2836.0,-3212.0,-11218.0,4443.0,-786.0,1
2521.0,-14156.0,956.0,5132.0,-6502.0,1666.0,-1076.0,1
2543.0,-15816.0,1052.0,2880.0,-4206.0,-416.0,-599.0,1
2565.0,-15400.0,3008.0,3028.0,-2559.0,-1346.0,2158.0,1
2587.0,-14724.0,7156.0,2752.0,215.0,-322.0,3515.0,1
2609.0,-15084.0,2340.0,312.0,-575.0,423.0,-6.0,1
2631.0,-13904.0,1532.0,1612.0,-196.0,807.0,-2204.0,1
2653.0,-12060.0,-1148.0,1028.0,-2402.0,2296.0,-4217.0,1
2675.0,-13688.0,-1828.0,-2768.0,-881.0,4442.0,-3222.0,1
2697.0,-16704.0,4192.0,-17536.0,-184.0,11273.0,-517.0,1
2719.0,-17532.0,4100.0,3320.0,-9122.0,723.0,1740.0,1
2741.0,-22308.0,2864.0,7748.0,9802.0,-141.0,199.0,1
2763.0,-16904.0,-2836.0,-940.0,5213.0,-775.0,-1326.0,1
2785.0,-16964.0,2492.0,2464.0,5140.0,514.0,1210.0,1
2807.0,-16620.0,2408.0,-300.0,5237.0,1757.0,1589.0,1
2829.0,-17128.0,1484.0,660.0,2200.0,2114.0,1132.0,1
2851.0,-16768.0,2844.0,180.0,736.0,2938.0,1654.0,1
2873.0,-15612.0,3744.0,256.0,2.0,3448.0,1531.0,1
2895.0,-16016.0,4144.0,240.0,-1418.0,3314.0,727.0,1
2917.0,-16296.0,4660.0,-1016.0,-2912.0,2588.0,-507.0,1
2939.0,-16356.0,4068.0,-832.0,-3291.0,1197.0,-1631.0,1
2961.0,-17268.0,1680.0,-316.0,-1738.0,-566.0,-2418.0,1
2983.0,-16152.0,1600.0,288.0,-389.0,-994.0,-1859.0,1
3005.0,-15652.0,2200.0,632.0,195.0,-610.0,-1040.0,1
3027.0,-16180.0,3076.0,632.0,-718.0,105.0,-885.0,1
3049.0,-15828.0,2836.0,208.0,-2455.0,564.0,-1099.0,1
3071.0,-15984.0,2728.0,220.0,-2896.0,1305.0,-1814.0,1
3093.0,-15464.0,2480.0,364.0,-1738.0,2884.0,-1404.0,1
3115.0,-15980.0,1712.0,488.0,-2588.0,4725.0,-1530.0,1
3137.0,-17556.0,224.0,364.0,-3432.0,7287.0,-1375.0,1
3159.0,-18004.0,1740.0,488.0,-2925.0,10242.0,-747.0,1
3181.0,-19640.0,4084.0,4300.0,326.0,10853.0,572.0,1
3203.0,-18596.0,4728.0,2240.0,2084.0,7715.0,694.0,1
3225.0,-16388.0,5828.0,14952.0,-1208.0,1967.0,1364.0,1
3247.0,-14520.0,5672.0,11352.0,-8932.0,-4706.0,1340.0,1
3269.0,-14024.0,2140.0,7168.0,-7857.0,-10458.0,449.0,1
3291.0,-16832.0,2760.0,320.0,-2619.0,-9897.0,-976.0,1
3313.0,-18960.0,2076.0,-2620.0,2179.0,-7972.0,-1226.0,1
3335.0,-16540.0,-704.0,-17500.0,13068.0,-6862.0,1846.0,1
3357.0,-15880.0,9580.0,-6148.0,5118.0,-5081.0,6233.0,1
3379.0,-14824.0,-3352.0,772.0,1887.0,-4619.0,-4590.0,1
3401.0,-14392.0,-3176.0,3328.0,7269.0,-1860.0,-2674.0,1
3423.0,-14716.0,3556.0,2180.0,5918.0,-168.0,364.0,1
3445.0,-16816.0,5244.0,-6216.0,-511.0,-1020.0,2587.0,1
3467.0,-15336.0,7616.0,-1040.0,-5779.0,-2624.0,2256.0,1
3489.0,-16496.0,-3156.0,1192.0,-5375.0,-4578.0,-6191.0,1
3511.0,-14628.0,916.0,512.0,704.0,-2138.0,-858.0,1
3533.0,-15088.0,2564.0,-1388.0,399.0,-761.0,1161.0,1
3555.0,-16952.0,1112.0,-3440.0,369.0,-393.0,3021.0,1
3577.0,-16308.0,4296.0,-1456.0,-2443.0,-651.0,1055.0,1
3599.0,-16008.0,-28.0,468.0,1510.0,-1645.0,-2485.0,1
3621.0,-15300.0,1900.0,4896.0,5288.0,-1053.0,-243.0,1
3643.0,-15148.0,2116.0,5036.0,2577.0,-1048.0,909.0,1
3665.0,-15464.0,5228.0,3540.0,1333.0,-779.0,4082.0,1
3687.0,-16816.0,7764.0,-660.0,-6178.0,-1521.0,2534.0,1
3709.0,-15836.0,-120.0,4444.0,-5214.0,-4363.0,-2806.0,1
3731.0,-15724.0,1400.0,956.0,1417.0,-3340.0,-259.0,1
3753.0,-14632.0,2172.0,832.0,656.0,-2218.0,624.0,1
3775.0,-15832.0,1372.0,-1316.0,-1119.0,-1395.0,1815.0,1
3797.0,-16492.0,5116.0,-1044.0,-5781.0,-1845.0,3066.0,1
3819.0,-15388.0,-268.0,-1140.0,-3272.0,-3937.0,-2280.0,1
3841.0,-14712.0,1228.0,-4744.0,2132.0,-2183.0,-396.0,1
3863.0,-13840.0,1204.0,-4624.0,580.0,495.0,214.0,1
3885.0,-13236.0,280.0,-4964.0,-219.0,2760.0,793.0,1
3907.0,-14288.0,-820.0,1584.0,-248.0,3243.0,-325.0,1
3929.0,-14960.0,2052.0,10988.0,-5538.0,2864.0,-490.0,1
3951.0,-15284.0,6608.0,7080.0,-7980.0,3745.0,-45.0,1
3973.0,-18724.0,12224.0,-12356.0,243.0,9557.0,1358.0,1
3995.0,-24420.0,456.0,-11620.0,13977.0,3525.0,-1364.0,1
4017.0,-13472.0,-76.0,3648.0,4623.0,581.0,-1141.0,1
4039.0,-17268.0,-360.0,-416.0,6655.0,2796.0,1492.0,1
4061.0,-17488.0,2936.0,-688.0,6185.0,3984.0,3620.0,1
4083.0,-16700.0,4304.0,-788.0,534.0,3246.0,3095.0,1
4105.0,-16132.0,4572.0,-1260.0,-1760.0,1473.0,575.0,1
4127.0,-15964.0,4168.0,-652.0,-1970.0,98.0,-468.0,1
4149.0,-15952.0,3852.0,-516.0,27.0,531.0,-537.0,1
4171.0,-15864.0,3576.0,-980.0,1503.0,622.0,-275.0,1
4193.0,-15772.0,3744.0,-24.0,674.0,571.0,-759.0,1
4215.0,-15384.0,3632.0,-288.0,-471.0,950.0,-823.0,1
4237.0,-15012.0,3600.0,-472.0,847.0,1930.0,-249.0,1
4259.0,-16552.0,3048.0,-788.0,-1043.0,1509.0,-753.0,1
4281.0,-16124.0,3176.0,-656.0,-538.0,1827.0,-1523.0,1
4303.0,-15872.0,2192.0,-668.0,-503.0,2010.0,-1697.0,1
4325.0,-16260.0,2284.0,-1112.0,-1202.0,2132.0,-1994.0,1
4347.0,-16396.0,988.0,-772.0,-1160.0,2651.0,-1080.0,1
4369.0,-16156.0,2372.0,-828.0,-1129.0,3652.0,-302.0,1
4391.0,-16076.0,2336.0,-1016.0,-2052.0,5124.0,-576.0,1
4413.0,-17276.0,2688.0,-208.0,-2524.0,7033.0,-1416.0,1
4435.0,-22652.0,-312.0,4216.0,-1619.0,1179.0,-3143.0,1
4457.0,-16868.0,5360.0,-344.0,-368.0,8401.0,-1108.0,1
4479.0,-20928.0,7712.0,4212.0,2344.0,9928.0,392.0,1
4501.0,-17860.0,8468.0,11416.0,3719.0,7459.0,1523.0,1
4523.0,-12020.0,6788.0,17972.0,-10423.0,-1084.0,1125.0,1
4545.0,-12220.0,1584.0,13116.0,-11669.0,-8986.0,197.0,1
4567.0,-13436.0,400.0,4976.0,-5128.0,-13245.0,-1280.0,1
4589.0,-17312.0,1080.0,-1496.0,-6146.0,-11523.0,-2987.0,1
4611.0,-22416.0,-320.0,-13144.0,3444.0,-9762.0,-3029.0,1
4633.0,-18152.0,7416.0,-15628.0,-23.0,-5155.0,3026.0,1
4655.0,-16296.0,3864.0,-6448.0,-5213.0,-5503.0,-627.0,1
4677.0,-14948.0,-2448.0,-5488.0,1397.0,-5216.0,-2296.0,1
4699.0,-15384.0,2212.0,-1436.0,4656.0,-5831.0,902.0,1
4721.0,-16724.0,2704.0,-1080.0,7196.0,-7396.0,-1867.0,1
4743.0,-16864.0,3824.0,-9516.0,10517.0,-7191.0,-20.0,1
4765.0,-16328.0,2816.0,4492.0,7586.0,-8468.0,-945.0,1
4787.0,-13620.0,-408.0,7460.0,7776.0,-8879.0,-2171.0,1
4809.0,-15524.0,4260.0,-112.0,7132.0,-6523.0,4015.0,1
4831.0,-16496.0,4280.0,-4328.0,-661.0,-5363.0,3857.0,1
4853.0,-16884.0,2564.0,-2860.0,-3406.0,-4603.0,1661.0,1
4875.0,-15880.0,828.0,-632.0,-1332.0,-2650.0,-323.0,1
4897.0,-14664.0,1096.0,4280.0,663.0,-614.0,632.0,1
4919.0,-13268.0,3896.0,4748.0,2193.0,-1028.0,4428.0,1
4941.0,-14548.0,5900.0,-420.0,-6281.0,-535.0,4345.0,1
4963.0,-17632.0,3380.0,2508.0,-10540.0,-2582.0,-1670.0,1
4985.0,-15172.0,8.0,-3012.0,-1617.0,-1470.0,-3319.0,1
5007.0,-13964.0,2332.0,-1432.0,1485.0,2994.0,-463.0,1
5029.0,-12784.0,2328.0,-32.0,-4707.0,6552.0,-1030.0,1
5051.0,-15668.0,216.0,-3908.0,-9754.0,7616.0,-1826.0,1
5073.0,-16748.0,3352.0,3612.0,-5331.0,3531.0,1053.0,1
5095.0,-13692.0,1564.0,6060.0,-3323.0,-4.0,-2057.0,1
5117.0,-14772.0,2052.0,2332.0,-3234.0,-1109.0,647.0,1
5139.0,-13316.0,1728.0,4.0,40.0,-173.0,2549.0,1
5161.0,-12048.0,-1052.0,-2876.0,-454.0,3894.0,1159.0,1
5183.0,-18308.0,3640.0,-11124.0,-4808.0,7823.0,1242.0,1
5205.0,-21800.0,15152.0,10304.0,-9386.0,991.0,2278.0,1
5227.0,-18164.0,10632.0,552.0,-9115.0,9256.0,-1606.0,1
5249.0,-17400.0,-6916.0,-244.0,-6801.0,6218.0,-4564.0,1
5271.0,-17760.0,-4508.0,532.0,2007.0,1676.0,-762.0,1
5293.0,-16668.0,-516.0,80.0,2880.0,3608.0,1878.0,1
5315.0,-18544.0,1968.0,-1616.0,5137.0,3473.0,3233.0,1
5337.0,-16348.0,4100.0,-968.0,547.0,2341.0,2639.0,1
5359.0,-16280.0,3656.0,-1056.0,106.0,1730.0,1049.0,1
5381.0,-15660.0,3704.0,-904.0,604.0,2729.0,903.0,1
5403.0,-16268.0,3608.0,-176.0,399.0,4014.0,1028.0,1
5425.0,-16332.0,4364.0,-1564.0,-1234.0,4011.0,10.0,1
5447.0,-16044.0,3484.0,-1600.0,-3211.0,2814.0,-1172.0,1
5469.0,-15956.0,3068.0,-1380.0,-4164.0,2447.0,-1416.0,1
5491.0,-15896.0,2936.0,-1504.0,-3580.0,2460.0,-1583.0,1
5513.0,-15976.0,3032.0,-1960.0,-2127.0,2000.0,-1004.0,1
5535.0,-16196.0,2368.0,-1184.0,-2734.0,2259.0,-1794.0,1
5557.0,-16452.0,2888.0,-1388.0,-2713.0,2222.0,-2065.0,1
5579.0,-16452.0,3032.0,-1732.0,-2933.0,3083.0,-2683.0,1
5601.0,-16368.0,2012.0,-1432.0,-2720.0,4021.0,-2243.0,1
5623.0,-20248.0,1340.0,2832.0,3329.0,-3016.0,-867.0,1
5645.0,-17008.0,-4208.0,-1884.0,3439.0,-4323.0,-3251.0,1
5667.0,-16984.0,3268.0,-2648.0,5700.0,6358.0,-598.0,1
5689.0,-19368.0,6312.0,584.0,3958.0,8768.0,670.0,1
5711.0,-20916.0,6668.0,4364.0,1494.0,9097.0,-351.0,1
5733.0,-15492.0,6460.0,14448.0,-3700.0,3174.0,1704.0,1
5755.0,-13428.0,5700.0,11256.0,-8694.0,-4438.0,1934.0,1
5777.0,-13776.0,1884.0,4564.0,-7288.0,-8233.0,-77.0,1
5799.0,-15760.0,772.0,-840.0,-3329.0,-8854.0,-211.0,1
5821.0,-17616.0,2140.0,-7328.0,-2400.0,-6835.0,1051.0,1
5843.0,-16484.0,2820.0,-11200.0,-4492.0,-4715.0,1369.0,1
5865.0,-16192.0,-420.0,-5732.0,-3158.0,-4152.0,-683.0,1
5887.0,-15076.0,576.0,-2616.0,445.0,-3036.0,-693.0,1
5909.0,-14236.0,1872.0,1504.0,4592.0,-2990.0,-764.0,1
5931.0,-15720.0,168.0,68.0,8658.0,-4745.0,-1374.0,1
5953.0,-17500.0,2860.0,-9368.0,6769.0,-6122.0,1834.0,1
5975.0,-17144.0,6356.0,-180.0,264.0,-7624.0,1851.0,1
5997.0,-16404.0,1520.0,1320.0,-557.0,-6498.0,-1396.0,1
6019.0,-14980.0,4436.0,2928.0,2818.0,-6289.0,1425.0,1
6041.0,-16092.0,3848.0,3548.0,4162.0,-6360.0,2173.0,1
6063.0,-16808.0,4552.0,-2144.0,3894.0,-5273.0,3156.0,1
6085.0,-16612.0,2256.0,-7652.0,205.0,-3964.0,2184.0,1
6107.0,-16108.0,-1420.0,-3188.0,1249.0,-1511.0,-248.0,1
6129.0,-14384.0,972.0,-2184.0,484.0,1090.0,1137.0,1
6151.0,-14864.0,984.0,1944.0,-2181.0,1945.0,391.0,1
6173.0,-17116.0,2220.0,-680.0,-4203.0,1393.0,774.0,1
6195.0,-17756.0,4368.0,2512.0,-4359.0,576.0,774.0,1
6217.0,-17944.0,2076.0,-128.0,63.0,969.0,-1177.0,1
6239.0,-15492.0,4224.0,4204.0,358.0,2215.0,103.0,1
6261.0,-14248.0,2616.0,7168.0,-2041.0,342.0,817.0,1
6283.0,-14928.0,3104.0,5048.0,-4316.0,-2803.0,1301.0,1
6305.0,-15516.0,3856.0,3536.0,-5295.0,-4907.0,641.0,1
6327.0,-14816.0,1828.0,-1728.0,-2256.0,-4696.0,117.0,1
6349.0,-13380.0,1308.0,-5500.0,242.0,-2246.0,1065.0,1
6371.0,-12436.0,184.0,-4388.0,-1913.0,426.0,1197.0,1
6393.0,-12164.0,1052.0,-7576.0,-6969.0,3046.0,-471.0,1
6415.0,-12596.0,328.0,-4988.0,-7364.0,2814.0,-1270.0,1
6437.0,-14268.0,2164.0,560.0,-3570.0,3005.0,-2797.0,1
6459.0,-14880.0,10504.0,17896.0,-1281.0,-213.0,-2494.0,1
6481.0,-16092.0,2152.0,10776.0,-2324.0,2949.0,-3730.0,1
6503.0,-24972.0,19408.0,-22640.0,13477.0,16244.0,9132.0,1
6525.0,-32768.0,5464.0,7812.0,-4033.0,-8039.0,-4630.0,1
6547.0,-5640.0,-3592.0,-1228.0,-5033.0,4841.0,-5039.0,1
6569.0,-17404.0,-1972.0,-588.0,4778.0,2211.0,2044.0,1
6591.0,-16780.0,2332.0,-20.0,3813.0,3265.0,3437.0,1
6613.0,-14964.0,6092.0,-888.0,1003.0,3549.0,1842.0,1
6635.0,-15608.0,4436.0,-1240.0,503.0,3347.0,-46.0,1
6657.0,-16376.0,2992.0,-1064.0,1054.0,3741.0,-60.0,1
6679.0,-16620.0,2652.0,-464.0,663.0,3365.0,-142.0,1
6701.0,-17516.0,2352.0,-1376.0,4935.0,1120.0,57.0,1
6723.0,-15748.0,3580.0,-1984.0,2200.0,1049.0,-419.0,1
6745.0,-15908.0,3748.0,-892.0,-334.0,1415.0,-1129.0,1
6767.0,-15740.0,3200.0,-1580.0,-1135.0,2110.0,-1277.0,1
6789.0,-16184.0,2464.0,-1776.0,-1259.0,2333.0,-1227.0,1
6811.0,-16052.0,2348.0,-1596.0,-2015.0,2855.0,-1071.0,1
6833.0,-16140.0,2120.0,-1388.0,-3352.0,3869.0,-1200.0,1
6855.0,-16492.0,2240.0,-1328.0,-3007.0,4900.0,-1142.0,1
6877.0,-16312.0,1240.0,-1516.0,-2758.0,6881.0,-1409.0,1
6899.0,-19796.0,1748.0,2384.0,78.0,4815.0,-533.0,1
6921.0,-22004.0,3932.0,5008.0,6681.0,-1416.0,389.0,1
6943.0,-16384.0,8192.0,-148.0,6879.0,6419.0,-201.0,1
6965.0,-19984.0,5540.0,-5516.0,2231.0,8287.0,-807.0,1
6987.0,-17748.0,3452.0,-3552.0,-39.0,8371.0,-963.0,1
7009.0,-14324.0,4380.0,4728.0,-3486.0,5764.0,542.0,1
7031.0,-10968.0,4720.0,7552.0,-8135.0,1094.0,-163.0,1
7053.0,-13264.0,1268.0,4712.0,-7433.0,-4428.0,-587.0,1
7075.0,-14856.0,308.0,2912.0,336.0,-8118.0,-1341.0,1
7097.0,-17232.0,628.0,-20.0,3791.0,-9726.0,-819.0,1
7119.0,-18496.0,3724.0,-4124.0,2454.0,-8432.0,404.0,1
7141.0,-16780.0,4564.0,-5004.0,-2519.0,-7416.0,10.0,1
7163.0,-15476.0,2208.0,1216.0,-3751.0,-8112.0,-584.0,1
7185.0,-15444.0,1564.0,2148.0,-2496.0,-9478.0,-57.0,1
7207.0,-17524.0,2496.0,-3416.0,570.0,-10788.0,1157.0,1
7229.0,-19860.0,1556.0,-12828.0,1394.0,-9907.0,2487.0,1
7251.0,-16876.0,5308.0,-12252.0,-3531.0,-7882.0,2657.0,1
7273.0,-16148.0,-364.0,-512.0,1542.0,-7663.0,-3037.0,1
7295.0,-14996.0,-1228.0,1300.0,8922.0,-6760.0,-2890.0,1
7317.0,-14356.0,4308.0,-3056.0,8820.0,-3260.0,2784.0,1
7339.0,-15316.0,368.0,-632.0,922.0,-457.0,2806.0,1
7361.0,-16892.0,708.0,-3552.0,-900.0,702.0,1150.0,1
7383.0,-17184.0,1928.0,-6268.0,-1211.0,928.0,-1639.0,1
7405.0,-15360.0,-604.0,4624.0,2133.0,862.0,-2772.0,1
7427.0,-14064.0,-152.0,6052.0,3182.0,770.0,-1749.0,1
7449.0,-13920.0,3528.0,6672.0,-1153.0,-100.0,2957.0,1
7471.0,-17484.0,8376.0,-4168.0,-7035.0,-1671.0,3538.0,1
7493.0,-17632.0,6440.0,3156.0,-10575.0,-5029.0,-1503.0,1
7515.0,-14984.0,3424.0,-2600.0,10.0,-4808.0,-3551.0,1
7537.0,-12984.0,5728.0,-660.0,4023.0,-3293.0,420.0,1
7559.0,-12280.0,6172.0,-2504.0,-20.0,-1504.0,3800.0,1
7581.0,-11056.0,1812.0,644.0,-5551.0,-38.0,958.0,1
7603.0,-15580.0,1060.0,-9224.0,-5909.0,1279.0,97.0,1
7625.0,-15352.0,-2008.0,-4156.0,-5574.0,-558.0,-3691.0,1
7647.0,-18512.0,-2340.0,4176.0,-3884.0,399.0,-4608.0,1
7669.0,-16048.0,2140.0,4684.0,-2909.0,2993.0,-1424.0,1
7691.0,-14668.0,4444.0,-13192.0,4437.0,6267.0,215.0,1
7713.0,-25532.0,-1984.0,1852.0,2306.0,741.0,375.0,1
7735.0,-11804.0,3580.0,620.0,1688.0,3557.0,644.0,1
7757.0,-16144.0,4580.0,32.0,284.0,3864.0,1658.0,1
7779.0,-14848.0,4864.0,116.0,1493.0,3838.0,1181.0,1
7801.0,-16144.0,3584.0,-456.0,-120.0,2870.0,-382.0,1
7823.0,-16676.0,2180.0,-620.0,-930.0,2747.0,-490.0,1
7845.0,-17616.0,404.0,-564.0,166.0,2430.0,72.0,1
7867.0,-17340.0,1728.0,-384.0,610.0,2431.0,725.0,1
7889.0,-16676.0,2848.0,-1312.0,24.0,1980.0,252.0,1
7911.0,-16364.0,2896.0,-916.0,296.0,640.0,27.0,1
7933.0,-16116.0,2808.0,-1084.0,-3183.0,-758.0,-1331.0,1
7955.0,-15732.0,3648.0,-1768.0,-1156.0,-754.0,-1259.0,1
7977.0,-16040.0,2788.0,-632.0,-596.0,-957.0,-1516.0,1
7999.0,-16480.0,3248.0,-252.0,334.0,155.0,-812.0,1
8021.0,-15640.0,2672.0,-340.0,-113.0,1731.0,-1442.0,1
8043.0,-14728.0,2540.0,184.0,-459.0,4748.0,-1669.0,1
8065.0,-15196.0,1296.0,-36.0,-1413.0,7499.0,-1020.0,1
8087.0,-16160.0,1008.0,-852.0,-2061.0,11561.0,-477.0,1
8109.0,-18772.0,700.0,-840.0,-5251.0,15179.0,-1157.0,1
8131.0,-28332.0,916.0,5284.0,4614.0,40.0,342.0,1
8153.0,-17432.0,6112.0,-2872.0,7700.0,5492.0,331.0,1
8175.0,-18492.0,5320.0,804.0,6785.0,5505.0,1203.0,1
8197.0,-13628.0,7944.0,10056.0,2451.0,1465.0,1062.0,1
8219.0,-13956.0,6232.0,9200.0,-1964.0,-4418.0,80.0,1
8241.0,-13452.0,5144.0,6240.0,-2514.0,-7460.0,-141.0,1
8263.0,-16132.0,5808.0,1760.0,-3189.0,-8798.0,865.0,1
8285.0,-18476.0,3372.0,-4956.0,1432.0,-8837.0,1648.0,1
8307.0,-16464.0,2340.0,-6012.0,-282.0,-6244.0,2062.0,1
8329.0,-14532.0,1260.0,-612.0,-3540.0,-3654.0,-670.0,1
8351.0,-14996.0,1168.0,6044.0,-5959.0,-3294.0,-1881.0,1
8373.0,-17120.0,-92.0,-18724.0,5153.0,-2687.0,3440.0,1
8395.0,-17188.0,7920.0,640.0,2226.0,-8754.0,7069.0,1
8417.0,-14176.0,-5776.0,4700.0,5577.0,-10299.0,-5650.0,1
8439.0,-15384.0,-916.0,352.0,9171.0,-6478.0,164.0,1
8461.0,-17348.0,1744.0,-8556.0,5972.0,-6406.0,2471.0,1
8483.0,-15632.0,6348.0,-4992.0,-4274.0,-5511.0,6809.0,1
8505.0,-15720.0,1612.0,-472.0,-9084.0,-5911.0,-741.0,1
8527.0,-14524.0,-1012.0,-4440.0,-6633.0,-4868.0,-2798.0,1
8549.0,-14320.0,3104.0,-4544.0,-3208.0,-2540.0,-91.0,1
8571.0,-15012.0,2368.0,-3520.0,-3310.0,377.0,929.0,1
8593.0,-16264.0,3244.0,-3248.0,-3422.0,2720.0,991.0,1
8615.0,-15984.0,3788.0,-936.0,-3930.0,2517.0,-361.0,1
8637.0,-14560.0,2268.0,7272.0,114.0,-340.0,-1297.0,1
8659.0,-13748.0,2040.0,10900.0,5950.0,-3460.0,-608.0,1
8681.0,-14076.0,5124.0,9936.0,5260.0,-5645.0,1166.0,1
8703.0,-15240.0,4108.0,6012.0,-2184.0,-6719.0,-813.0,1
8725.0,-17484.0,4480.0,-3864.0,-2994.0,-4901.0,1735.0,1
8747.0,-14760.0,1008.0,-3332.0,-5262.0,-2805.0,666.0,1
8769.0,-12324.0,-2544.0,-4480.0,-6924.0,2586.0,-1671.0,1
8791.0,-12084.0,-2372.0,-9408.0,-7526.0,11369.0,-2807.0,1
8813.0,-32768.0,-9260.0,-388.0,-15713.0,2541.0,3134.0,1
8835.0,-15632.0,14968.0,15568.0,2078.0,1157.0,1842.0,1
8857.0,-15832.0,2912.0,-5220.0,12045.0,4871.0,307.0,1
8879.0,-20336.0,4064.0,1044.0,2426.0,3683.0,1542.0,1
8901.0,-14980.0,2352.0,572.0,2441.0,4337.0,113.0,1
8923.0,-16288.0,3220.0,-1116.0,-448.0,2748.0,-11.0,1
8945.0,-14716.0,4244.0,56.0,925.0,2961.0,436.0,1
8967.0,-15576.0,1956.0,-276.0,-58.0,2777.0,-6.0,1
8989.0,-17600.0,-36.0,-212.0,627.0,3252.0,483.0,1
9011.0,-17324.0,2040.0,252.0,2120.0,4078.0,1562.0,1
9033.0,-15912.0,4012.0,-796.0,2507.0,4471.0,1299.0,1
9055.0,-16452.0,4512.0,-1332.0,1382.0,3628.0,-35.0,1
9077.0,-16500.0,3432.0,-1748.0,-3142.0,1646.0,-2243.0,1
9099.0,-16316.0,3036.0,-2280.0,-1653.0,705.0,-2397.0,1
9121.0,-16628.0,2492.0,-1400.0,-684.0,-129.0,-1788.0,1
9143.0,-16652.0,2056.0,-796.0,-328.0,-529.0,-1475.0,1
9165.0,-15840.0,2740.0,-680.0,-306.0,-143.0,-1072.0,1
9187.0,-15868.0,3552.0,-716.0,-880.0,775.0,-1118.0,1
9209.0,-15932.0,2696.0,-940.0,-1201.0,1934.0,-1481.0,1
9231.0,-15800.0,2780.0,-1028.0,-1010.0,3293.0,-1290.0,1
9253.0,-15772.0,2644.0,-1276.0,-1176.0,4729.0,-956.0,1
9275.0,-16620.0,836.0,-808.0,-2890.0,6640.0,-1152.0,1
9297.0,-18056.0,1444.0,256.0,-4442.0,8231.0,-1590.0,1
9319.0,-18100.0,2028.0,288.0,-3771.0,4165.0,-2728.0,1
9341.0,-17884.0,3868.0,-924.0,4655.0,8180.0,-870.0,1
9363.0,-21448.0,5740.0,-1684.0,4897.0,9176.0,66.0,1
9385.0,-18776.0,6220.0,7712.0,5030.0,7663.0,1105.0,1
9407.0,-14800.0,6900.0,12500.0,-2329.0,2935.0,592.0,1
9429.0,-12340.0,3184.0,14232.0,-6290.0,-4774.0,386.0,1
9451.0,-13352.0,3060.0,10184.0,-2217.0,-9600.0,1444.0,1
9473.0,-15100.0,3008.0,5128.0,-2692.0,-10707.0,1051.0,1
9495.0,-19444.0,1160.0,-2864.0,-2916.0,-10201.0,-130.0,1
9517.0,-19820.0,3208.0,-14940.0,-4490.0,-6188.0,1983.0,1
9539.0,-17916.0,4884.0,-5896.0,-10893.0,-9117.0,2283.0,1
9561.0,-16508.0,-3660.0,168.0,-2834.0,-13566.0,-992.0,1
9583.0,-16096.0,3792.0,-996.0,7786.0,-14754.0,4188.0,1
9605.0,-18556.0,1528.0,-8712.0,12580.0,-14009.0,-1861.0,1
9627.0,-16508.0,220.0,-11964.0,14742.0,-11520.0,-2322.0,1
9649.0,-14436.0,2884.0,-7780.0,14441.0,-4595.0,1209.0,1
9671.0,-15328.0,1912.0,-3676.0,4930.0,1189.0,824.0,1
9693.0,-14508.0,1660.0,684.0,-7953.0,2351.0,2107.0,1
9715.0,-15160.0,3104.0,2296.0,-13089.0,75.0,588.0,1
9737.0,-15396.0,-232.0,2028.0,-10802.0,-2348.0,-2958.0,1
9759.0,-16592.0,-152.0,964.0,-3019.0,-1266.0,-2506.0,1
9781.0,-14708.0,3940.0,2848.0,-1196.0,1261.0,364.0,1
9803.0,-16512.0,3536.0,-3144.0,2652.0,2049.0,2953.0,1
9825.0,-17128.0,9124.0,2732.0,-2674.0,267.0,3101.0,1
9847.0,-14988.0,-2856.0,10600.0,1438.0,-5496.0,-5891.0,1
9869.0,-15348.0,3472.0,7396.0,11793.0,-6072.0,-167.0,1
9891.0,-15112.0,3140.0,2356.0,9630.0,-5756.0,1115.0,1
9913.0,-15116.0,4844.0,712.0,2979.0,-2679.0,4810.0,1
9935.0,-15852.0,4348.0,-5528.0,-6009.0,-278.0,4733.0,1
9957.0,-14660.0,5376.0,-2376.0,-14452.0,289.0,2075.0,1
9979.0,-14008.0,-2368.0,-2636.0,-13361.0,593.0,-3440.0,1
10001.0,-10968.0,-368.0,-1844.0,-9876.0,3750.0,-2938.0,1
10023.0,-11548.0,-3592.0,-1152.0,-9931.0,4096.0,-4096.0,1
10045.0,-16388.0,-484.0,-8536.0,-9039.0,5817.0,-1490.0,1
10067.0,-16884.0,-1776.0,-5460.0,-256.0,1532.0,-2049.0,1
10089.0,-21776.0,-2668.0,-3240.0,-670.0,2153.0,-1575.0,1
10111.0,-22636.0,31848.0,28212.0,4472.0,-5678.0,10911.0,1
10133.0,-24440.0,5048.0,-19616.0,6495.0,7651.0,-2848.0,1
10155.0,-13864.0,-6112.0,4972.0,5820.0,109.0,-468.0,1
10177.0,-15208.0,1452.0,2040.0,4448.0,4173.0,1275.0,1
10199.0,-16388.0,624.0,540.0,3076.0,5369.0,2341.0,1
10221.0,-16012.0,4404.0,-80.0,2301.0,5421.0,3126.0,1
10243.0,-15848.0,4928.0,-708.0,-2379.0,3744.0,658.0,1
10265.0,-15868.0,3652.0,-140.0,-1846.0,3114.0,-357.0,1
10287.0,-17400.0,2548.0,-1140.0,47.0,2784.0,-183.0,1
10309.0,-16572.0,3228.0,-1088.0,572.0,2121.0,-580.0,1
10331.0,-16884.0,2056.0,-644.0,-446.0,737.0,-1239.0,1
10353.0,-15808.0,2888.0,-480.0,-506.0,943.0,-954.0,1
10375.0,-15664.0,3172.0,-580.0,-534.0,1243.0,-1024.0,1
10397.0,-15900.0,2716.0,-500.0,-501.0,1022.0,-1401.0,1
10419.0,-16024.0,2968.0,-880.0,160.0,992.0,-1400.0,1
10441.0,-15748.0,2724.0,-480.0,68.0,1400.0,-1712.0,1
10463.0,-16432.0,1068.0,-556.0,-6.0,1939.0,-1743.0,1
10485.0,-16156.0,1460.0,-524.0,594.0,3125.0,-785.0,1
10507.0,-15752.0,1872.0,-428.0,385.0,4644.0,-360.0,1
10529.0,-15452.0,2744.0,-588.0,-207.0,6777.0,-295.0,1
10551.0,-16736.0,1992.0,-1176.0,-2204.0,9132.0,-790.0,1
10573.0,-17488.0,2536.0,-1240.0,-3573.0,10393.0,-1599.0,1
10595.0,-19452.0,-12.0,-3128.0,-47.0,3853.0,-2925.0,1
10617.0,-18940.0,6488.0,-456.0,3109.0,6286.0,-223.0,1
10639.0,-20228.0,6968.0,4052.0,3558.0,7091.0,80.0,1
10661.0,-15112.0,6576.0,12488.0,3101.0,2479.0,-234.0,1
10683.0,-14188.0,3316.0,9436.0,624.0,-2939.0,373.0,1
10705.0,-14088.0,1768.0,6712.0,1417.0,-6735.0,972.0,1
10727.0,-14488.0,2412.0,3048.0,-348.0,-7316.0,904.0,1
10749.0,-17252.0,928.0,-1236.0,310.0,-7861.0,-1138.0,1
10771.0,-17044.0,1152.0,-5936.0,1617.0,-6215.0,-647.0,1
10793.0,-15796.0,2880.0,-6152.0,-3215.0,-4938.0,-374.0,1
10815.0,-17872.0,1020.0,-8984.0,-1562.0,-6819.0,-461.0,1
10837.0,-17372.0,3092.0,-10292.0,476.0,-8974.0,3109.0,1
10859.0,-14832.0,552.0,-3724.0,-2122.0,-8825.0,-268.0,1
10881.0,-15820.0,-3724.0,-5908.0,-239.0,-4928.0,-3473.0,1
10903.0,-15044.0,2744.0,-2392.0,-1513.0,-601.0,-937.0,1
10925.0,-15488.0,2476.0,-5180.0,-5351.0,-1156.0,1540.0,1
10947.0,-15700.0,5144.0,-3312.0,-6839.0,-2894.0,3169.0,1
10969.0,-16056.0,-1204.0,-744.0,-2952.0,-5364.0,-2750.0,1
10991.0,-16840.0,172.0,-4432.0,5118.0,-3294.0,-1286.0,1
11013.0,-15632.0,2964.0,-4412.0,7817.0,740.0,496.0,1
11035.0,-17468.0,1316.0,-6420.0,8923.0,3996.0,2418.0,1
11057.0,-17688.0,7404.0,-4344.0,4919.0,6048.0,5803.0,1
11079.0,-16708.0,4036.0,7788.0,171.0,3288.0,-251.0,1
11101.0,-14740.0,-2184.0,14500.0,3739.0,-2120.0,-2889.0,1
11123.0,-12952.0,1600.0,14500.0,8032.0,-5369.0,-1029.0,1
11145.0,-15208.0,5188.0,5256.0,3856.0,-6409.0,2430.0,1
11167.0,-16464.0,5616.0,1928.0,-3758.0,-5744.0,4394.0,1
11189.0,-17216.0,6868.0,-4984.0,-11051.0,-3856.0,4071.0,1
11211.0,-15900.0,572.0,-2532.0,-12327.0,-4418.0,-1226.0,1
11233.0,-14496.0,-1100.0,-3192.0,-6024.0,-3593.0,-1287.0,1
11255.0,-13000.0,2044.0,1136.0,-2030.0,-2481.0,-1428.0,1
11277.0,-11304.0,1388.0,3388.0,871.0,-1926.0,-2146.0,1
11299.0,-14048.0,712.0,2540.0,-2365.0,-2619.0,-1767.0,1
11321.0,-16916.0,3352.0,-4860.0,-2524.0,-1820.0,-28.0,1
11343.0,-17608.0,1876.0,-5680.0,-2081.0,-1308.0,267.0,1
11365.0,-16312.0,-1248.0,-6824.0,-2404.0,1391.0,-1708.0,1
11387.0,-20300.0,-1864.0,-22176.0,6036.0,8100.0,1287.0,1
11409.0,-16504.0,5452.0,-2592.0,6012.0,1340.0,-394.0,1
11431.0,-17788.0,6548.0,23788.0,2385.0,-1035.0,2287.0,1
11453.0,-15560.0,-596.0,-6960.0,7645.0,7009.0,-1618.0,1
11475.0,-21732.0,3372.0,248.0,2816.0,6132.0,2693.0,1
11497.0,-14180.0,2856.0,-352.0,-560.0,4952.0,-158.0,1
11519.0,-15652.0,5352.0,-1240.0,-2237.0,2646.0,-51.0,1
11541.0,-15212.0,3224.0,-1552.0,-2372.0,2961.0,-1358.0,1
11563.0,-18224.0,-44.0,-648.0,-1465.0,3495.0,-1105.0,1
11585.0,-18540.0,-1164.0,160.0,1274.0,3464.0,693.0,1
11607.0,-16472.0,3192.0,-1188.0,2104.0,4033.0,1838.0,1
11629.0,-16200.0,4292.0,-1816.0,749.0,3245.0,-121.0,1
11651.0,-16224.0,3904.0,-2628.0,201.0,1948.0,-1126.0,1
11673.0,-16304.0,2408.0,-2368.0,504.0,1177.0,-1730.0,1
11695.0,-16508.0,624.0,-1380.0,-426.0,877.0,-1407.0,1
11717.0,-16260.0,1320.0,-1256.0,-2044.0,1451.0,-773.0,1
11739.0,-15892.0,2060.0,-1492.0,-3921.0,2101.0,-697.0,1
11761.0,-15576.0,3152.0,-1552.0,-4863.0,3083.0,-1083.0,1
11783.0,-15964.0,2500.0,-1420.0,-4799.0,3898.0,-1798.0,1
11805.0,-15660.0,2624.0,-1588.0,-3677.0,4836.0,-1529.0,1
11827.0,-15840.0,1288.0,-1600.0,-2732.0,6125.0,-1590.0,1
11849.0,-16404.0,104.0,-1612.0,-2264.0,7690.0,-680.0,1
11871.0,-21648.0,-48.0,3544.0,1004.0,2909.0,437.0,1
11893.0,-21628.0,-2296.0,3932.0,6812.0,-4177.0,-566.0,1
11915.0,-18148.0,6112.0,-760.0,10139.0,8834.0,136.0,1
11937.0,-22872.0,7828.0,96.0,7447.0,11170.0,101.0,1
11959.0,-21108.0,3388.0,8096.0,5588.0,9289.0,-1085.0,1
11981.0,-13364.0,4376.0,11200.0,6415.0,3979.0,-1468.0,1
12003.0,-13264.0,6200.0,12124.0,1806.0,-2255.0,-761.0,1
12025.0,-11376.0,4332.0,9424.0,-519.0,-7317.0,412.0,1
12047.0,-14540.0,6560.0,3368.0,-3521.0,-10859.0,3230.0,1
12069.0,-17996.0,1624.0,-3736.0,-11877.0,-12686.0,2835.0,1
12091.0,-16912.0,2036.0,-10964.0,-12906.0,-10941.0,3193.0,1
12113.0,-17184.0,3404.0,-10276.0,-11300.0,-8360.0,420.0,1
12135.0,-18260.0,968.0,-9248.0,-4220.0,-8064.0,-2855.0,1
12157.0,-17000.0,1132.0,-11088.0,3151.0,-7138.0,-2692.0,1
12179.0,-14612.0,616.0,704.0,5434.0,-7160.0,-1869.0,1
12201.0,-14908.0,2492.0,3616.0,3582.0,-7981.0,460.0,1
12223.0,-16896.0,3512.0,-1516.0,2369.0,-8392.0,3850.0,1
12245.0,-17220.0,3836.0,-4700.0,-2149.0,-7902.0,4160.0,1
12267.0,-17448.0,668.0,-3028.0,-3647.0,-8491.0,-387.0,1
12289.0,-17164.0,-2876.0,-2452.0,3982.0,-7444.0,-2094.0,1
12311.0,-16048.0,1848.0,-3636.0,8326.0,-3550.0,794.0,1
12333.0,-15136.0,3288.0,-3764.0,3458.0,702.0,1706.0,1
12355.0,-17124.0,2196.0,-7268.0,-3747.0,2643.0,3197.0,1
12377.0,-15612.0,4928.0,1076.0,-9615.0,614.0,1783.0,1
12399.0,-15192.0,-2824.0,4144.0,-5532.0,-2883.0,-4184.0,1
12421.0,-15480.0,1484.0,4984.0,2429.0,-3842.0,-539.0,1
12443.0,-15660.0,2148.0,2824.0,5518.0,-4694.0,-7.0,1
12465.0,-15488.0,3240.0,2284.0,5345.0,-3929.0,2213.0,1
12487.0,-16716.0,2296.0,-296.0,2405.0,-3460.0,2405.0,1
12509.0,-16096.0,4260.0,852.0,-1418.0,-3080.0,2698.0,1
12531.0,-15004.0,1760.0,552.0,-4426.0,-2988.0,1496.0,1
12553.0,-14240.0,4360.0,-1072.0,-5025.0,-1816.0,3543.0,1
12575.0,-13188.0,2492.0,-360.0,-13286.0,-1094.0,978.0,1
12597.0,-13696.0,-1996.0,-616.0,-12414.0,-2114.0,-3114.0,1
12619.0,-14268.0,-2116.0,-2892.0,-3708.0,-1941.0,-2469.0,1
12641.0,-17420.0,-680.0,-7808.0,-463.0,437.0,-1546.0,1
12663.0,-13928.0,-380.0,-8836.0,-808.0,5152.0,-2287.0,1
12685.0,-15424.0,2580.0,-1260.0,-4137.0,7575.0,57.0,1
12707.0,-32768.0,23724.0,31576.0,4623.0,-2731.0,7412.0,1
12729.0,-10476.0,1512.0,-12540.0,19676.0,6580.0,-6635.0,1
12751.0,-21964.0,2648.0,2460.0,677.0,2094.0,394.0,1
12773.0,-12876.0,164.0,1352.0,229.0,4468.0,-1978.0,1
12795.0,-17668.0,-1164.0,796.0,3722.0,4186.0,1243.0,1
12817.0,-16800.0,-44.0,420.0,5270.0,3901.0,1606.0,1
12839.0,-16072.0,2836.0,152.0,2654.0,2916.0,1706.0,1
12861.0,-16596.0,2788.0,-396.0,2020.0,3315.0,1348.0,1
12883.0,-16800.0,2868.0,-404.0,3896.0,3961.0,1689.0,1
12905.0,-15892.0,4420.0,-956.0,4449.0,3974.0,1226.0,1
12927.0,-16536.0,3916.0,-1404.0,1593.0,3083.0,-240.0,1
12949.0,-15980.0,3492.0,-732.0,334.0,2321.0,-699.0,1
12971.0,-16268.0,2892.0,-1180.0,-15.0,1146.0,-945.0,1
12993.0,-16644.0,2616.0,-952.0,-1688.0,-515.0,-1466.0,1
13015.0,-15900.0,2908.0,-888.0,-2089.0,-835.0,-1461.0,1
13037.0,-15832.0,2528.0,-400.0,-1262.0,-486.0,-1346.0,1
13059.0,-15820.0,2368.0,-268.0,-686.0,115.0,-1047.0,1
13081.0,-15884.0,2808.0,-204.0,-1026.0,917.0,-921.0,1
13103.0,-15776.0,2380.0,-216.0,-1025.0,2250.0,-1214.0,1
13125.0,-15728.0,1944.0,-344.0,-660.0,4064.0,-875.0,1
13147.0,-15864.0,3096.0,-812.0,-253.0,5684.0,-384.0,1
13169.0,-15720.0,2344.0,-1252.0,-1699.0,6934.0,-431.0,1
13191.0,-16724.0,1732.0,-1020.0,-2863.0,8481.0,-898.0,1
13213.0,-17544.0,428.0,332.0,-5078.0,10105.0,-1798.0,1
13235.0,-22300.0,-352.0,2856.0,-5295.0,5237.0,-3050.0,1
13257.0,-18880.0,5124.0,-220.0,4665.0,9921.0,-399.0,1
13279.0,-21708.0,6580.0,-1344.0,5092.0,10985.0,1081.0,1
13301.0,-19268.0,6652.0,4800.0,4257.0,7755.0,220.0,1
13323.0,-13640.0,4800.0,10400.0,-1111.0,2367.0,-1646.0,1
13345.0,-13020.0,3868.0,8868.0,-4784.0,-2213.0,677.0,1
13367.0,-12172.0,2348.0,10092.0,-3707.0,-7189.0,667.0,1
13389.0,-15132.0,3912.0,5416.0,-2976.0,-10893.0,905.0,1
13411.0,-18188.0,1732.0,-2600.0,-4044.0,-13028.0,507.0,1
13433.0,-18484.0,3344.0,-7748.0,-6950.0,-12110.0,2247.0,1
13455.0,-17416.0,5020.0,-6144.0,-8706.0,-11754.0,1817.0,1
13477.0,-16808.0,144.0,-5096.0,-4757.0,-11026.0,-1137.0,1
13499.0,-15976.0,1396.0,-4468.0,366.0,-8077.0,-829.0,1
13521.0,-17756.0,1576.0,-6648.0,8863.0,-6837.0,-1763.0,1
13543.0,-18192.0,1992.0,-8836.0,9343.0,-5630.0,1523.0,1
13565.0,-16012.0,4004.0,-3952.0,4159.0,-4659.0,1843.0,1
13587.0,-15676.0,1336.0,-3672.0,43.0,-3846.0,658.0,1
13609.0,-15924.0,3332.0,-6296.0,-2244.0,-1722.0,1799.0,1
13631.0,-16256.0,3308.0,-7176.0,-3680.0,-165.0,272.0,1
13653.0,-15904.0,-480.0,-2608.0,-523.0,894.0,-523.0,1
13675.0,-14748.0,1452.0,1344.0,1743.0,-933.0,1023.0,1
13697.0,-15144.0,2152.0,3636.0,-337.0,-3830.0,3115.0,1
13719.0,-15148.0,2912.0,4804.0,-2791.0,-4544.0,3520.0,1
13741.0,-16804.0,5228.0,-384.0,-3885.0,-2915.0,3342.0,1
13763.0,-15972.0,2784.0,956.0,-3494.0,-1616.0,1368.0,1
13785.0,-14756.0,40.0,3732.0,389.0,-1019.0,91.0,1
13807.0,-14072.0,128.0,4780.0,2430.0,-1936.0,-495.0,1
13829.0,-14000.0,2184.0,2012.0,1600.0,-1467.0,413.0,1
13851.0,-13644.0,2324.0,2024.0,-3460.0,1166.0,-2382.0,1
13873.0,-14684.0,828.0,-6164.0,-13980.0,4714.0,-4509.0,1
13895.0,-17248.0,4720.0,-8700.0,-12132.0,5853.0,82.0,1
13917.0,-16012.0,1788.0,-3344.0,-6109.0,2813.0,-2425.0,1
13939.0,-14552.0,-5384.0,-8184.0,2668.0,2563.0,-1552.0,1
13961.0,-14232.0,-1916.0,-5852.0,4782.0,316.0,-64.0,1
13983.0,-16476.0,18088.0,0.0,-606.0,1872.0,7444.0,1
14005.0,-19288.0,-2828.0,-17716.0,5644.0,6718.0,-5799.0,1
14027.0,-23688.0,-2688.0,7044.0,-2529.0,116.0,-2069.0,1
14049.0,-14900.0,1012.0,-416.0,5155.0,6556.0,425.0,1
14071.0,-17016.0,-640.0,-140.0,621.0,6670.0,2422.0,1
14093.0,-15516.0,4676.0,-732.0,1072.0,6762.0,3127.0,1
14115.0,-15000.0,5848.0,-1928.0,-3350.0,6363.0,624.0,1
14137.0,-16024.0,3932.0,-1928.0,-5013.0,5588.0,-260.0,1
14159.0,-17120.0,1888.0,-2204.0,-3897.0,4825.0,-484.0,1
14181.0,-16876.0,1988.0,-1636.0,-2127.0,3707.0,70.0,1
14203.0,-17004.0,2612.0,-2184.0,-1158.0,2249.0,-32.0,1
14225.0,-16540.0,2632.0,-2060.0,-1321.0,1553.0,-210.0,1
14247.0,-16000.0,3452.0,-1968.0,-711.0,2009.0,-428.0,1
14269.0,-16408.0,3624.0,-2276.0,-43.0,1808.0,-282.0,1
14291.0,-16108.0,3608.0,-2532.0,-280.0,1932.0,-568.0,1
14313.0,-15736.0,3056.0,-2232.0,-677.0,1859.0,-899.0,1
14335.0,-16016.0,2848.0,-2100.0,-69.0,2251.0,-493.0,1
14357.0,-16460.0,2996.0,-2352.0,-1281.0,2196.0,-1247.0,1
14379.0,-16100.0,2236.0,-2456.0,-573.0,2637.0,-616.0,1
14401.0,-16100.0,2088.0,-2652.0,-598.0,3541.0,-221.0,1
14423.0,-15544.0,2948.0,-2776.0,-85.0,4677.0,-77.0,1
14445.0,-16024.0,2584.0,-2144.0,-597.0,6827.0,-208.0,1
14467.0,-18284.0,2524.0,-1576.0,-441.0,8679.0,-451.0,1
14489.0,-32264.0,-228.0,7952.0,9580.0,-12318.0,2244.0,1
14511.0,-13644.0,4364.0,-5740.0,17655.0,3522.0,13.0,1
14533.0,-20716.0,7836.0,-576.0,7306.0,10108.0,383.0,1
14555.0,-19700.0,5728.0,700.0,3691.0,11272.0,-785.0,1
14577.0,-17580.0,3936.0,10468.0,1538.0,7054.0,-315.0,1
14599.0,-10032.0,4444.0,18816.0,1125.0,-2413.0,-304.0,1
14621.0,-13032.0,4644.0,13668.0,1669.0,-10967.0,690.0,1
14643.0,-15372.0,2620.0,5124.0,2862.0,-16800.0,938.0,1
14665.0,-17760.0,3040.0,-2696.0,1297.0,-18046.0,1910.0,1
14687.0,-17732.0,1600.0,-6632.0,-3247.0,-15762.0,1432.0,1
14709.0,-17460.0,6540.0,-5208.0,-11953.0,-12875.0,82.0,1
14731.0,-18328.0,3460.0,-3924.0,-14593.0,-11279.0,-5761.0,1
14753.0,-19068.0,1668.0,-8836.0,-7913.0,-9199.0,-6312.0,1
14775.0,-19964.0,732.0,-10852.0,10976.0,-10169.0,-375.0,1
14797.0,-18348.0,-2980.0,-16100.0,20883.0,-11906.0,3403.0,1
14819.0,-16052.0,6088.0,-12588.0,10923.0,-9885.0,8018.0,1
14841.0,-14576.0,5428.0,-4924.0,2420.0,-8537.0,2025.0,1
14863.0,-14552.0,-4956.0,4388.0,1741.0,-6431.0,-5054.0,1
14885.0,-13856.0,-1140.0,3196.0,11612.0,-2615.0,-507.0,1
14907.0,-14648.0,2460.0,1204.0,9144.0,-1320.0,2773.0,1
14929.0,-15936.0,4164.0,344.0,1360.0,-943.0,5815.0,1
14951.0,-16608.0,9736.0,-208.0,-8470.0,-520.0,3665.0,1
14973.0,-15544.0,1228.0,3236.0,-9674.0,-3088.0,-3955.0,1
14995.0,-14068.0,712.0,5332.0,-2198.0,-1490.0,-1031.0,1
15017.0,-13364.0,4572.0,1116.0,-3466.0,-306.0,2495.0,1
15039.0,-15784.0,4100.0,-2832.0,-10327.0,-40.0,4174.0,1
15061.0,-17160.0,6816.0,-1092.0,-15839.0,-977.0,3548.0,1
15083.0,-14868.0,-2896.0,532.0,-6714.0,-3576.0,-4985.0,1
15105.0,-14376.0,2284.0,-2476.0,2506.0,-1540.0,-1157.0,1
15127.0,-13736.0,1828.0,-2552.0,3251.0,1487.0,-518.0,1
15149.0,-13312.0,704.0,-2472.0,544.0,4192.0,1996.0,1
15171.0,-14816.0,-1432.0,-10024.0,-4978.0,6761.0,237.0,1
15193.0,-18540.0,-2000.0,1556.0,-5297.0,4121.0,115.0,1
15215.0,-15248.0,10848.0,20976.0,402.0,1231.0,2683.0,1
15237.0,-18884.0,5544.0,-17296.0,3100.0,9350.0,-398.0,1
15259.0,-22340.0,3548.0,1252.0,3798.0,3075.0,1868.0,1
15281.0,-15032.0,3304.0,-1692.0,2211.0,7724.0,-366.0,1
15303.0,-17300.0,1140.0,-744.0,3760.0,6368.0,961.0,1
15325.0,-17116.0,2456.0,-780.0,2939.0,5907.0,1539.0,1
15347.0,-17220.0,3088.0,-1676.0,-211.0,4526.0,1204.0,1
15369.0,-16904.0,2644.0,-1216.0,-411.0,2878.0,676.0,1
15391.0,-16552.0,3860.0,-1948.0,141.0,1975.0,364.0,1
15413.0,-16176.0,3708.0,-1624.0,717.0,1111.0,-63.0,1
15435.0,-16248.0,3416.0,-1224.0,687.0,469.0,-248.0,1
15457.0,-15980.0,3604.0,-724.0,-48.0,342.0,-533.0,1
15479.0,-15932.0,3116.0,-748.0,-492.0,624.0,-902.0,1
15501.0,-16024.0,2976.0,-664.0,-655.0,857.0,-862.0,1
15523.0,-15316.0,3688.0,-412.0,-117.0,1372.0,-613.0,1
15545.0,-15416.0,3644.0,-1056.0,689.0,2227.0,-672.0,1
15567.0,-15564.0,3748.0,-1224.0,-381.0,2525.0,-834.0,1
15589.0,-16160.0,3464.0,-1732.0,-1616.0,2004.0,-1467.0,1
15611.0,-16032.0,2060.0,-1476.0,-2575.0,2592.0,-1311.0,1
15633.0,-15952.0,2744.0,-1308.0,-2831.0,3942.0,-906.0,1
15655.0,-15604.0,3604.0,-868.0,-3161.0,5629.0,-453.0,1
15677.0,-15300.0,3772.0,-2348.0,-4505.0,6927.0,-672.0,1
15699.0,-15240.0,3872.0,-3128.0,-5362.0,7591.0,-1206.0,1
15721.0,-17404.0,2116.0,-2408.0,-7051.0,9047.0,-2652.0,1
15743.0,-23028.0,2416.0,4524.0,-5178.0,4929.0,-3185.0,1
15765.0,-19688.0,-2964.0,-196.0,5008.0,-3061.0,-3156.0,1
15787.0,-22668.0,4664.0,-1284.0,7939.0,8042.0,1099.0,1
15809.0,-21364.0,5520.0,1288.0,8525.0,11652.0,1395.0,1
15831.0,-19496.0,5852.0,4968.0,5427.0,10220.0,2000.0,1
15853.0,-14800.0,5652.0,18420.0,1332.0,2273.0,-607.0,1
15875.0,-10532.0,884.0,16804.0,2044.0,-7513.0,-512.0,1
15897.0,-10416.0,1896.0,14980.0,6303.0,-15483.0,1118.0,1
15919.0,-14508.0,3188.0,6452.0,4609.0,-21909.0,2837.0,1
15941.0,-20908.0,5832.0,-4048.0,-2077.0,-21845.0,4143.0,1
15963.0,-24576.0,8744.0,-17128.0,-10599.0,-16507.0,4067.0,1
15985.0,-19996.0,7472.0,-19396.0,-17108.0,-10621.0,1435.0,1
16007.0,-16900.0,3812.0,-12340.0,-8269.0,-5523.0,1245.0,1
16029.0,-15908.0,1028.0,-6996.0,3057.0,-2814.0,-533.0,1
16051.0,-15148.0,-1876.0,3704.0,9078.0,-4228.0,-1952.0,1
16073.0,-11524.0,500.0,11968.0,7678.0,-5909.0,30.0,1
16095.0,-14628.0,3752.0,8500.0,1167.0,-7624.0,1641.0,1
16117.0,-21764.0,5952.0,-12924.0,-6982.0,-9037.0,4096.0,1
16139.0,-17512.0,2280.0,-1628.0,-10587.0,-11358.0,-1797.0,1
16161.0,-15012.0,-4296.0,-5060.0,3326.0,-8237.0,-6675.0,1
16183.0,-15268.0,2528.0,-6756.0,12996.0,-516.0,-402.0,1
16205.0,-12372.0,5012.0,-3948.0,5586.0,5600.0,1951.0,1
16227.0,-17424.0,-1300.0,-5772.0,-6010.0,7475.0,-1569.0,1
16249.0,-17448.0,6860.0,-3076.0,-12006.0,4906.0,2759.0,1
16271.0,-12064.0,-980.0,6768.0,-7711.0,-1121.0,-5081.0,1
16293.0,-13844.0,276.0,6064.0,-867.0,-2854.0,-2199.0,1
16315.0,-14240.0,3568.0,4596.0,22.0,-3889.0,-10.0,1
16337.0,-15300.0,5956.0,3044.0,-2684.0,-3127.0,2051.0,1
16359.0,-19040.0,4476.0,-8864.0,-5382.0,-1948.0,2711.0,1
16381.0,-13412.0,2456.0,1396.0,-569.0,-5076.0,578.0,1
16403.0,-11808.0,-2980.0,-1656.0,5999.0,-4240.0,-1630.0,1
16425.0,-13980.0,-1768.0,-524.0,7093.0,-2938.0,127.0,1
16447.0,-14204.0,-2964.0,-3848.0,5550.0,-449.0,117.0,1
16469.0,-15240.0,-3080.0,-6892.0,4952.0,3605.0,1280.0,1
16491.0,-19728.0,4624.0,-2612.0,-2310.0,5423.0,2040.0,1
16513.0,-19420.0,22140.0,27892.0,-662.0,247.0,6250.0,1
16535.0,-14552.0,7784.0,-12292.0,-3824.0,7773.0,-2674.0,1
16557.0,-19480.0,7348.0,-4540.0,-4685.0,5926.0,-849.0,1
16579.0,-13792.0,-1128.0,1444.0,-6896.0,5570.0,-5200.0,1
16601.0,-20552.0,-3428.0,-1920.0,2509.0,5485.0,-1318.0,1
16623.0,-19332.0,-1444.0,324.0,4522.0,3994.0,828.0,1
16645.0,-16476.0,2712.0,-4.0,1977.0,3882.0,2526.0,1
16667.0,-15044.0,4580.0,-248.0,-70.0,3261.0,1972.0,1
16689.0,-16340.0,4096.0,-472.0,-1249.0,3101.0,614.0,1
16711.0,-16552.0,3196.0,-520.0,136.0,3444.0,243.0,1
16733.0,-16104.0,2784.0,-76.0,1636.0,3570.0,368.0,1
16755.0,-16516.0,3452.0,-876.0,1616.0,3516.0,536.0,1
16777.0,-16100.0,4548.0,-1388.0,-649.0,2632.0,-613.0,1
16799.0,-16020.0,3572.0,-1336.0,-2342.0,1997.0,-1650.0,1
16821.0,-16596.0,2824.0,-936.0,-1644.0,1451.0,-1597.0,1
16843.0,-16224.0,2584.0,-1168.0,127.0,1343.0,-1026.0,1
16865.0,-16316.0,2580.0,-1176.0,-53.0,1286.0,-873.0,1
16887.0,-16540.0,3204.0,-768.0,-713.0,866.0,-1062.0,1
16909.0,-15620.0,2992.0,-1320.0,-792.0,1282.0,-1226.0,1
16931.0,-16032.0,2960.0,-1356.0,-719.0,1998.0,-1012.0,1
16953.0,-15640.0,3340.0,-1380.0,-1076.0,2849.0,-601.0,1
16975.0,-15448.0,3248.0,-1460.0,-1990.0,4005.0,-481.0,1
16997.0,-15184.0,3396.0,-1352.0,-2979.0,5526.0,-988.0,1
17019.0,-16372.0,2240.0,-1992.0,-4441.0,7113.0,-1547.0,1
17041.0,-16468.0,1948.0,-1812.0,-4698.0,8736.0,-2126.0,1
17063.0,-22304.0,-2832.0,1212.0,3102.0,-1515.0,-2685.0,1
17085.0,-15284.0,5052.0,-1260.0,822.0,6450.0,-2793.0,1
17107.0,-19516.0,4328.0,72.0,1847.0,10327.0,-1461.0,1
17129.0,-24332.0,5296.0,-484.0,7154.0,11699.0,-164.0,1
17151.0,-22992.0,5888.0,1028.0,8439.0,12354.0,-275.0,1
17173.0,-19232.0,8512.0,9144.0,8209.0,9090.0,-305.0,1
17195.0,-10616.0,8100.0,17292.0,1015.0,1088.0,578.0,1
17217.0,-7896.0,3568.0,18272.0,-3491.0,-8810.0,1508.0,1
17239.0,-13176.0,2480.0,9756.0,-881.0,-15861.0,3312.0,1
17261.0,-17068.0,3136.0,1524.0,-7105.0,-18222.0,3562.0,1
17283.0,-19928.0,1120.0,-11192.0,-6805.0,-16774.0,2579.0,1
17305.0,-21664.0,3084.0,-17288.0,-10643.0,-12154.0,1953.0,1
17327.0,-17820.0,3848.0,-18932.0,-5813.0,-7811.0,-1158.0,1
17349.0,-17356.0,308.0,-19932.0,2346.0,-5223.0,147.0,1
17371.0,-15580.0,1736.0,-2456.0,6700.0,-4814.0,1341.0,1
17393.0,-13500.0,84.0,7360.0,5338.0,-7049.0,-1568.0,1
17415.0,-16032.0,336.0,3180.0,5406.0,-10318.0,428.0,1
17437.0,-16716.0,5228.0,-2308.0,632.0,-11781.0,4620.0,1
17459.0,-18128.0,3988.0,-7140.0,-4496.0,-9954.0,1355.0,1
17481.0,-18032.0,2496.0,-10220.0,-3364.0,-4609.0,20.0,1
17503.0,-15400.0,1536.0,-5640.0,353.0,-72.0,306.0,1
17525.0,-14360.0,792.0,-100.0,779.0,2620.0,1033.0,1
17547.0,-14256.0,1136.0,3328.0,-555.0,2526.0,1192.0,1
17569.0,-15680.0,3144.0,-176.0,-4792.0,934.0,1447.0,1
17591.0,-16204.0,3544.0,3260.0,-6199.0,-1453.0,-817.0,1
17613.0,-15824.0,748.0,4460.0,726.0,-1992.0,-2680.0,1
17635.0,-15388.0,3976.0,4636.0,4838.0,-2719.0,-182.0,1
17657.0,-14316.0,5496.0,4276.0,2113.0,-2253.0,2554.0,1
17679.0,-13428.0,3592.0,6148.0,-4121.0,-1483.0,-654.0,1
17701.0,-14764.0,2708.0,-3028.0,-6297.0,754.0,-2123.0,1
17723.0,-13948.0,3212.0,-3108.0,-7737.0,2300.0,-2134.0,1
17745.0,-17832.0,-1912.0,-3704.0,-4041.0,371.0,-2527.0,1
17767.0,-17304.0,912.0,-8988.0,-8220.0,80.0,4163.0,1
17789.0,-13164.0,2424.0,2004.0,-7536.0,-4238.0,1789.0,1
17811.0,-15728.0,-5168.0,-5264.0,-1807.0,-2363.0,-2236.0,1
17833.0,-15492.0,-2940.0,-8340.0,3957.0,1057.0,-1352.0,1
17855.0,-21292.0,8376.0,8460.0,-172.0,1122.0,1163.0,1
17877.0,-19144.0,8780.0,-2744.0,5679.0,3026.0,2473.0,1
17899.0,-23572.0,340.0,804.0,1861.0,3982.0,-1393.0,1
17921.0,-13780.0,1176.0,-132.0,2776.0,6043.0,-173.0,1
17943.0,-16952.0,772.0,-140.0,1170.0,5808.0,927.0,1
17965.0,-17500.0,1256.0,-796.0,1300.0,5531.0,1683.0,1
17987.0,-17412.0,2680.0,-852.0,784.0,4086.0,1711.0,1
18009.0,-16128.0,3440.0,-824.0,1215.0,3174.0,946.0,1
18031.0,-16392.0,3300.0,-1280.0,1352.0,2918.0,562.0,1
18053.0,-16276.0,3756.0,-1240.0,1645.0,2653.0,634.0,1
18075.0,-17024.0,3392.0,-1260.0,801.0,1420.0,-208.0,1
18097.0,-16068.0,3496.0,-1084.0,882.0,-37.0,-920.0,1
18119.0,-15956.0,2212.0,-232.0,377.0,-34.0,-810.0,1
18141.0,-15688.0,3160.0,-696.0,1389.0,967.0,-374.0,1
18163.0,-16180.0,3916.0,-1316.0,361.0,897.0,-737.0,1
18185.0,-15488.0,3252.0,-900.0,-1415.0,1689.0,-1390.0,1
18207.0,-15544.0,3276.0,-984.0,-586.0,2845.0,-1424.0,1
18229.0,-16528.0,3136.0,-1760.0,-441.0,3344.0,-1520.0,1
18251.0,-16496.0,2500.0,-1632.0,-1087.0,3161.0,-1875.0,1
18273.0,-16392.0,1484.0,-1496.0,-1532.0,3567.0,-1207.0,1
18295.0,-15936.0,2648.0,-1484.0,-2040.0,4734.0,-353.0,1
18317.0,-15816.0,2896.0,-2240.0,-3499.0,5775.0,-527.0,1
18339.0,-16036.0,2960.0,-2640.0,-5439.0,6722.0,-992.0,1
18361.0,-16752.0,2388.0,-2560.0,-6583.0,7188.0,-1999.0,1
18383.0,-17684.0,1584.0,-2672.0,-6161.0,7502.0,-2721.0,1
18405.0,-20576.0,2972.0,2172.0,-43.0,3199.0,-1937.0,1
18427.0,-15360.0,1152.0,-3688.0,5190.0,-2431.0,-3522.0,1
18449.0,-15880.0,5560.0,-2264.0,3942.0,7246.0,-2805.0,1
18471.0,-18964.0,4776.0,-440.0,2335.0,11601.0,-1897.0,1
18493.0,-22632.0,2100.0,-244.0,4782.0,12763.0,-1233.0,1
18515.0,-20972.0,2448.0,-348.0,6913.0,12147.0,262.0,1
18537.0,-17196.0,5164.0,11692.0,7407.0,7324.0,567.0,1
18559.0,-12384.0,2556.0,14856.0,6396.0,-1245.0,-41.0,1
18581.0,-11756.0,2196.0,11008.0,8442.0,-8012.0,1743.0,1
18603.0,-14368.0,4660.0,5500.0,5650.0,-12239.0,3758.0,1
18625.0,-16572.0,1368.0,-2016.0,-1912.0,-14110.0,4456.0,1
18647.0,-18592.0,4736.0,-10900.0,-7910.0,-13054.0,4785.0,1
18669.0,-20084.0,2216.0,-12680.0,-9514.0,-11761.0,1737.0,1
18691.0,-16568.0,140.0,-11376.0,-5085.0,-8716.0,742.0,1
18713.0,-14564.0,1440.0,-3772.0,-360.0,-6887.0,804.0,1
18735.0,-14364.0,1684.0,932.0,165.0,-7659.0,1350.0,1
18757.0,-15020.0,4520.0,-276.0,-9548.0,-8117.0,2296.0,1
18779.0,-17772.0,5576.0,-3244.0,-12927.0,-10609.0,2234.0,1
18801.0,-18648.0,3116.0,-9960.0,-10086.0,-10691.0,285.0,1
18823.0,-18156.0,-216.0,-12120.0,-7367.0,-7910.0,-2517.0,1
18845.0,-16956.0,2504.0,-9828.0,3745.0,-2941.0,2339.0,1
18867.0,-16916.0,1172.0,-6580.0,5234.0,-436.0,1044.0,1
18889.0,-16024.0,1920.0,-660.0,5485.0,2140.0,1688.0,1
18911.0,-15404.0,1940.0,1316.0,1217.0,554.0,735.0,1
18933.0,-16652.0,3828.0,4484.0,-894.0,-3934.0,897.0,1
18955.0,-16404.0,2180.0,4844.0,-1084.0,-6250.0,-1014.0,1
18977.0,-16880.0,2964.0,3228.0,-512.0,-5130.0,152.0,1
18999.0,-16256.0,4676.0,5620.0,-622.0,-4170.0,1016.0,1
19021.0,-15736.0,1588.0,3676.0,-822.0,-5720.0,1510.0,1
19043.0,-14392.0,2984.0,-2444.0,-629.0,-6687.0,4258.0,1
19065.0,-13284.0,-396.0,1076.0,-2800.0,-7494.0,1090.0,1
19087.0,-13208.0,-1380.0,-1792.0,1124.0,-5390.0,455.0,1
19109.0,-13484.0,-560.0,-10116.0,1757.0,-1853.0,-38.0,1
19131.0,-13260.0,1568.0,-10620.0,-4019.0,2980.0,956.0,1
19153.0,-16356.0,3888.0,-7028.0,-8035.0,6985.0,-938.0,1
19175.0,-14976.0,9532.0,14176.0,-6517.0,2966.0,-1462.0,1
19197.0,-13448.0,2656.0,6384.0,-4940.0,5007.0,-4279.0,1
19219.0,-20852.0,15076.0,-18764.0,1863.0,15617.0,117.0,1
19241.0,-29068.0,-2796.0,-1416.0,2353.0,3103.0,-8044.0,1
19263.0,-14076.0,-6664.0,3348.0,2183.0,4143.0,-3411.0,1
19285.0,-15136.0,1356.0,80.0,3370.0,3949.0,3417.0,1
19307.0,-15488.0,3492.0,-296.0,-1040.0,4802.0,3025.0,1
19329.0,-14964.0,6352.0,-1436.0,-2092.0,4857.0,1164.0,1
19351.0,-16836.0,2660.0,-1208.0,-1280.0,4438.0,32.0,1
19373.0,-16640.0,2480.0,-964.0,3148.0,3639.0,480.0,1
19395.0,-16344.0,2752.0,-1140.0,1156.0,4230.0,607.0,1
19417.0,-16724.0,3716.0,-1592.0,-785.0,3788.0,95.0,1
19439.0,-16184.0,3468.0,-1620.0,-2754.0,2840.0,-951.0,1
19461.0,-15976.0,2972.0,-1192.0,-2899.0,3213.0,-1239.0,1
19483.0,-16132.0,2772.0,-1536.0,-443.0,2705.0,-983.0,1
19505.0,-15640.0,3000.0,-1820.0,-495.0,2901.0,-920.0,1
19527.0,-16248.0,3248.0,-1972.0,-1173.0,3216.0,-1007.0,1
19549.0,-16076.0,3052.0,-1964.0,-1807.0,3241.0,-1035.0,1
19571.0,-16116.0,3016.0,-2824.0,-1916.0,3387.0,-1338.0,1
19593.0,-16596.0,1896.0,-2584.0,-1252.0,2837.0,-1215.0,1
19615.0,-16452.0,1680.0,-2356.0,-829.0,2635.0,-716.0,1
19637.0,-16260.0,1636.0,-2192.0,-527.0,3052.0,-290.0,1
19659.0,-15448.0,2964.0,-2256.0,-540.0,4768.0,-202.0,1
19681.0,-16564.0,2688.0,-1792.0,-2092.0,6460.0,-1082.0,1
19703.0,-18916.0,3316.0,1120.0,54.0,3432.0,-1341.0,1
19725.0,-19624.0,1100.0,808.0,7169.0,-3207.0,-177.0,1
19747.0,-14664.0,4164.0,-4824.0,11561.0,5301.0,-1678.0,1
19769.0,-21104.0,4444.0,-1756.0,7001.0,10202.0,-948.0,1
19791.0,-21660.0,4164.0,-792.0,5274.0,11914.0,-621.0,1
19813.0,-19232.0,4160.0,-404.0,3415.0,12343.0,-339.0,1
19835.0,-15996.0,7188.0,13500.0,2142.0,7437.0,909.0,1
19857.0,-12100.0,3208.0,15124.0,450.0,-631.0,12.0,1
19879.0,-12540.0,1420.0,14836.0,4786.0,-7418.0,808.0,1
19901.0,-15296.0,2224.0,9992.0,7287.0,-12702.0,1408.0,1
19923.0,-17296.0,4812.0,5224.0,4773.0,-15954.0,1853.0,1
19945.0,-19936.0,6420.0,-728.0,-5216.0,-17267.0,2714.0,1
19967.0,-19436.0,3216.0,-5256.0,-13843.0,-16370.0,2485.0,1
19989.0,-19676.0,1840.0,-13944.0,-8249.0,-14814.0,2819.0,1
20011.0,-19196.0,5068.0,-18916.0,-7498.0,-13496.0,3761.0,1
20033.0,-16796.0,872.0,-10692.0,-7452.0,-11702.0,-676.0,1
20055.0,-15124.0,-1784.0,-9056.0,-1279.0,-8528.0,-914.0,1
20077.0,-14876.0,1156.0,-7136.0,633.0,-6843.0,61.0,1
20099.0,-17164.0,160.0,-8376.0,1534.0,-6166.0,-132.0,1
20121.0,-16824.0,5572.0,-8768.0,-307.0,-3383.0,3230.0,1
20143.0,-17400.0,2684.0,-5576.0,-983.0,-2315.0,-1730.0,1
20165.0,-15704.0,-2820.0,3396.0,3625.0,-1753.0,-3310.0,1
20187.0,-13928.0,272.0,-204.0,8286.0,-693.0,129.0,1
20209.0,-14192.0,3488.0,2828.0,1947.0,-155.0,3317.0,1
20231.0,-17788.0,3700.0,-3056.0,1274.0,-1678.0,3266.0,1
20253.0,-16964.0,4828.0,2472.0,773.0,-5097.0,-323.0,1
20275.0,-16588.0,-2468.0,8608.0,8088.0,-6958.0,-6366.0,1
20297.0,-14264.0,2572.0,5792.0,13003.0,-4016.0,-872.0,1
20319.0,-14352.0,6332.0,3040.0,2527.0,-2889.0,5741.0,1
20341.0,-15264.0,1952.0,2696.0,-11538.0,-1583.0,3052.0,1
20363.0,-18752.0,8124.0,-6020.0,-19063.0,-1263.0,4594.0,1
20385.0,-14744.0,-1492.0,-2096.0,-12547.0,-3901.0,-4519.0,1
20407.0,-13256.0,216.0,-6404.0,-2757.0,-1074.0,-2127.0,1
20429.0,-12232.0,1692.0,-5488.0,-956.0,1850.0,-1006.0,1
20451.0,-14132.0,-1312.0,-4532.0,-1837.0,3609.0,-2114.0,1
20473.0,-17548.0,-144.0,-6732.0,-785.0,3643.0,1033.0,1
20495.0,-14828.0,3072.0,1224.0,3060.0,265.0,908.0,1
20517.0,-21652.0,5860.0,16376.0,198.0,-2763.0,-959.0,1
20539.0,-21844.0,13308.0,-5840.0,-445.0,3166.0,3028.0,1
20561.0,-26060.0,-3756.0,1248.0,-3621.0,1549.0,-2139.0,1
20583.0,-12284.0,-1604.0,3116.0,-276.0,4092.0,-1092.0,1
20605.0,-15696.0,344.0,2540.0,501.0,5560.0,1321.0,1
20627.0,-17220.0,2656.0,28.0,2595.0,6158.0,2640.0,1
20649.0,-15648.0,4988.0,236.0,1304.0,5158.0,2102.0,1
20671.0,-15328.0,4392.0,28.0,-381.0,4108.0,473.0,1
20693.0,-16876.0,1632.0,88.0,-190.0,3933.0,307.0,1
20715.0,-17556.0,1900.0,-520.0,1449.0,3668.0,1131.0,1
20737.0,-17132.0,2940.0,-748.0,1194.0,2820.0,1059.0,1
20759.0,-16472.0,3160.0,-780.0,-2.0,1989.0,415.0,1
20781.0,-15948.0,3244.0,-428.0,-108.0,1770.0,194.0,1
20803.0,-15776.0,3388.0,-836.0,197.0,1646.0,-108.0,1
20825.0,-16184.0,3160.0,-832.0,234.0,1469.0,-587.0,1
20847.0,-16172.0,2952.0,-604.0,419.0,1327.0,-521.0,1
20869.0,-15860.0,2736.0,-456.0,1016.0,1066.0,-147.0,1
20891.0,-16100.0,2792.0,-416.0,957.0,1831.0,11.0,1
20913.0,-16240.0,3732.0,-748.0,-868.0,1893.0,-932.0,1
20935.0,-15908.0,3472.0,-824.0,-86.0,3246.0,-675.0,1
20957.0,-16468.0,2356.0,-1116.0,-2230.0,3064.0,-1734.0,1
20979.0,-16368.0,2580.0,-1756.0,-1350.0,3548.0,-1342.0,1
21001.0,-15984.0,2444.0,-1896.0,-1088.0,3516.0,-1115.0,1
21023.0,-16168.0,2300.0,-1852.0,-1597.0,3927.0,-1079.0,1
21045.0,-17648.0,1380.0,-1468.0,-2838.0,5014.0,-1369.0,1
21067.0,-19580.0,464.0,940.0,-509.0,3148.0,-1664.0,1
21089.0,-17788.0,-108.0,-872.0,944.0,-1418.0,-2959.0,1
21111.0,-15272.0,5784.0,-608.0,4715.0,9092.0,-988.0,1
21133.0,-21676.0,7136.0,2792.0,5428.0,11719.0,208.0,1
21155.0,-22240.0,6632.0,3880.0,5857.0,12500.0,239.0,1
21177.0,-18740.0,4032.0,9072.0,6070.0,7684.0,786.0,1
21199.0,-12784.0,4136.0,14808.0,3062.0,831.0,721.0,1
21221.0,-9456.0,712.0,14668.0,-724.0,-7665.0,464.0,1
21243.0,-12848.0,2788.0,7844.0,655.0,-13228.0,1237.0,1
21265.0,-17232.0,3752.0,-1284.0,-2133.0,-14709.0,1373.0,1
21287.0,-21372.0,4504.0,-11180.0,-6981.0,-12955.0,371.0,1
21309.0,-19144.0,6020.0,-19220.0,-8885.0,-7757.0,2500.0,1
21331.0,-16264.0,5208.0,-9956.0,-12331.0,-6088.0,-72.0,1
21353.0,-15060.0,488.0,-5296.0,-6505.0,-4642.0,-1485.0,1
21375.0,-13752.0,2492.0,-1732.0,362.0,-5278.0,1319.0,1
21397.0,-14236.0,4244.0,-1348.0,-459.0,-5568.0,-732.0,1
21419.0,-17088.0,-1196.0,-6072.0,4174.0,-6873.0,-3268.0,1
21441.0,-17740.0,4768.0,-9704.0,4124.0,-4561.0,1548.0,1
21463.0,-15904.0,4336.0,-204.0,1115.0,-4271.0,-235.0,1
21485.0,-15500.0,572.0,-488.0,5016.0,-2622.0,1594.0,1
21507.0,-15828.0,2908.0,384.0,5497.0,-2753.0,2861.0,1
21529.0,-15532.0,1796.0,1700.0,2105.0,-3456.0,1523.0,1
21551.0,-15708.0,2160.0,136.0,537.0,-2928.0,1774.0,1
21573.0,-15244.0,3092.0,1364.0,-3546.0,-3335.0,1741.0,1
21595.0,-14692.0,2408.0,2108.0,-5639.0,-4584.0,2191.0,1
21617.0,-14392.0,3804.0,-40.0,-7234.0,-4759.0,2209.0,1
21639.0,-14644.0,88.0,-2840.0,-8433.0,-3525.0,-629.0,1
21661.0,-16636.0,-1176.0,-10188.0,-3052.0,-1233.0,-984.0,1
21683.0,-16252.0,1408.0,-7528.0,747.0,-239.0,613.0,1
21705.0,-14184.0,-1300.0,-5292.0,1643.0,1124.0,-2208.0,1
21727.0,-14576.0,-2552.0,-6288.0,-274.0,4629.0,-2421.0,1
21749.0,-15648.0,-740.0,2372.0,-7087.0,7266.0,-866.0,1
21771.0,-25376.0,23168.0,16032.0,-3932.0,5966.0,5610.0,1
21793.0,-11092.0,3496.0,-14428.0,2791.0,9272.0,-4526.0,1
21815.0,-20744.0,-1092.0,1976.0,-3675.0,3608.0,-938.0,1
21837.0,-13688.0,768.0,-48.0,-2064.0,5303.0,-1886.0,1
21859.0,-18376.0,-2608.0,1376.0,2572.0,3640.0,343.0,1
21881.0,-16404.0,1500.0,-1476.0,4840.0,3550.0,2166.0,1
21903.0,-15680.0,5348.0,-1936.0,312.0,3047.0,1817.0,1
21925.0,-15232.0,3896.0,-808.0,-2855.0,2643.0,762.0,1
21947.0,-16608.0,2492.0,-1240.0,-2045.0,2941.0,609.0,1
21969.0,-17412.0,1612.0,-1504.0,235.0,2433.0,923.0,1
21991.0,-16560.0,2700.0,-1228.0,125.0,2463.0,917.0,1
22013.0,-16328.0,4340.0,-1556.0,-835.0,2269.0,335.0,1
22035.0,-17188.0,4444.0,-416.0,512.0,-182.0,-626.0,1
22057.0,-14548.0,3208.0,-2340.0,2883.0,-2776.0,-1364.0,1
22079.0,-15264.0,3156.0,-1828.0,1328.0,-15.0,-1353.0,1
22101.0,-15732.0,3064.0,-1012.0,19.0,1442.0,-1351.0,1
22123.0,-15456.0,3140.0,-1384.0,-1692.0,2683.0,-1815.0,1
22145.0,-15772.0,3128.0,-1924.0,-2085.0,3375.0,-1831.0,1
22167.0,-15996.0,2676.0,-1772.0,-2604.0,3989.0,-2146.0,1
22189.0,-16604.0,1600.0,-1912.0,-2598.0,4492.0,-1852.0,1
22211.0,-15984.0,2212.0,-1932.0,-1898.0,5350.0,-1314.0,1
22233.0,-16284.0,1712.0,-2380.0,-2710.0,5897.0,-1088.0,1
22255.0,-16820.0,1192.0,-2540.0,-2930.0,6426.0,-774.0,1
22277.0,-18176.0,1540.0,-2152.0,-3051.0,7356.0,-1032.0,1
22299.0,-21352.0,1916.0,1456.0,4030.0,-3115.0,-248.0,1
22321.0,-10592.0,1932.0,-5052.0,8839.0,964.0,-2091.0,1
22343.0,-19364.0,3824.0,-1632.0,4435.0,8037.0,-1868.0,1
22365.0,-21256.0,3668.0,-788.0,7228.0,10608.0,-1339.0,1
22387.0,-20008.0,4748.0,2312.0,6458.0,11204.0,-654.0,1
22409.0,-15344.0,1632.0,6476.0,802.0,6734.0,634.0,1
22431.0,-9916.0,5492.0,17252.0,-2388.0,-2137.0,288.0,1
22453.0,-13160.0,2688.0,11864.0,-4449.0,-10592.0,-492.0,1
22475.0,-16564.0,4576.0,4644.0,-1249.0,-14795.0,1239.0,1
22497.0,-20572.0,6120.0,-4952.0,-3110.0,-12464.0,1810.0,1
22519.0,-20184.0,6396.0,-14456.0,-7130.0,-9459.0,2872.0,1
22541.0,-16840.0,2568.0,-13444.0,-6314.0,-4992.0,849.0,1
22563.0,-17372.0,1016.0,-14160.0,-981.0,-371.0,407.0,1
22585.0,-16604.0,1440.0,-10608.0,3842.0,3823.0,1478.0,1
22607.0,-14836.0,1268.0,4184.0,2492.0,3723.0,718.0,1
22629.0,-11916.0,460.0,11424.0,438.0,-3099.0,-213.0,1
22651.0,-14012.0,448.0,8296.0,2826.0,-9546.0,683.0,1
22673.0,-17192.0,1816.0,-12.0,2435.0,-11984.0,1745.0,1
22695.0,-19996.0,4220.0,-6108.0,-1614.0,-9517.0,1600.0,1
22717.0,-18948.0,5972.0,-6892.0,-6289.0,-6073.0,1097.0,1
22739.0,-15708.0,964.0,-2224.0,-5146.0,-4085.0,-743.0,1
22761.0,-14484.0,-592.0,76.0,-4411.0,-2865.0,-1095.0,1
22783.0,-16516.0,532.0,-1944.0,-346.0,-2986.0,-638.0,1
22805.0,-16520.0,1716.0,-1172.0,-180.0,-3497.0,636.0,1
22827.0,-15260.0,268.0,2952.0,1237.0,-5771.0,-312.0,1
22849.0,-16132.0,648.0,788.0,4256.0,-6195.0,1843.0,1
22871.0,-16332.0,2748.0,-1592.0,384.0,-5178.0,1730.0,1
22893.0,-16120.0,1696.0,-2112.0,-11107.0,-4484.0,-731.0,1
22915.0,-16192.0,2196.0,-10844.0,-5109.0,-2614.0,744.0,1
22937.0,-12912.0,-616.0,-8096.0,332.0,-4905.0,-366.0,1
22959.0,-11384.0,-3908.0,-13176.0,5987.0,-1512.0,-1702.0,1
22981.0,-17168.0,216.0,-12748.0,2587.0,3848.0,-1282.0,1
23003.0,-20964.0,30472.0,9636.0,12276.0,6141.0,6621.0,1
23025.0,-18352.0,-7144.0,-20520.0,2838.0,8030.0,-7003.0,1
23047.0,-18852.0,-2104.0,3592.0,2393.0,1587.0,345.0,1
23069.0,-15728.0,1308.0,540.0,3069.0,4800.0,1602.0,1
23091.0,-17612.0,816.0,-456.0,-171.0,4691.0,3021.0,1
23113.0,-16004.0,3828.0,-448.0,308.0,3942.0,2723.0,1
23135.0,-15964.0,5556.0,-2052.0,227.0,1417.0,709.0,1
23157.0,-16100.0,3056.0,-1252.0,-310.0,766.0,-183.0,1
23179.0,-16876.0,3180.0,-1672.0,716.0,481.0,315.0,1
23201.0,-16184.0,3748.0,-1368.0,351.0,-704.0,-335.0,1
23223.0,-16092.0,3236.0,-712.0,-339.0,-1944.0,-1045.0,1
23245.0,-15984.0,2236.0,-176.0,-934.0,-1820.0,-964.0,1
23267.0,-16092.0,1748.0,-96.0,-202.0,-382.0,-511.0,1
23289.0,-15932.0,3216.0,-232.0,961.0,774.0,254.0,1
23311.0,-15828.0,3692.0,-236.0,135.0,1072.0,-45.0,1
23333.0,-16872.0,2976.0,-52.0,-4833.0,-2782.0,-1184.0,1
23355.0,-16464.0,2248.0,356.0,-2249.0,-2058.0,-1001.0,1
23377.0,-15368.0,2472.0,-1296.0,-2605.0,-950.0,-1961.0,1
23399.0,-14908.0,3712.0,1056.0,46.0,2368.0,-2060.0,1
23421.0,-15720.0,2400.0,-232.0,164.0,4519.0,-1402.0,1
23443.0,-16180.0,2312.0,256.0,-105.0,6354.0,-524.0,1
23465.0,-16972.0,2068.0,-1920.0,-252.0,7460.0,-315.0,1
23487.0,-17864.0,668.0,-1516.0,-1890.0,8502.0,-241.0,1
23509.0,-17788.0,4768.0,1144.0,-1322.0,9961.0,1190.0,1
23531.0,-19252.0,5756.0,1560.0,806.0,9464.0,852.0,1
23553.0,-22296.0,6736.0,5440.0,357.0,8100.0,-495.0,1
23575.0,-18816.0,4388.0,11504.0,-142.0,6263.0,-2695.0,1
23597.0,-13232.0,3872.0,15044.0,310.0,1044.0,-950.0,1
23619.0,-11360.0,3192.0,13060.0,895.0,-6578.0,1197.0,1
23641.0,-15060.0,1804.0,5840.0,-5910.0,-12181.0,35.0,1
23663.0,-18828.0,-80.0,-6380.0,-606.0,-15393.0,1658.0,1
23685.0,-19260.0,2384.0,-12528.0,822.0,-12545.0,1955.0,1
23707.0,-17648.0,2912.0,-13856.0,-1221.0,-6681.0,1361.0,1
23729.0,-17724.0,2044.0,-19216.0,-123.0,-2832.0,371.0,1
23751.0,-17896.0,4028.0,-3672.0,-2371.0,-3962.0,2618.0,1
23773.0,-12192.0,428.0,7956.0,-1331.0,-7187.0,-118.0,1
23795.0,-13428.0,-968.0,5204.0,2087.0,-9212.0,-1174.0,1
23817.0,-15428.0,2452.0,-1996.0,1071.0,-8218.0,2640.0,1
23839.0,-17876.0,3536.0,-5880.0,-4178.0,-5377.0,2758.0,1
23861.0,-17060.0,2320.0,-2916.0,-4681.0,-3273.0,-1447.0,1
23883.0,-14628.0,848.0,132.0,3443.0,-1002.0,-2765.0,1
23905.0,-14196.0,3188.0,-524.0,6511.0,1445.0,-1261.0,1
23927.0,-13136.0,3128.0,2240.0,3709.0,3610.0,581.0,1
23949.0,-17764.0,2096.0,-5188.0,3568.0,1482.0,-124.0,1
23971.0,-17524.0,8800.0,2164.0,-2977.0,167.0,1139.0,1
23993.0,-14540.0,2272.0,6276.0,-1259.0,-2851.0,-3766.0,1
24015.0,-14644.0,6060.0,4792.0,1553.0,-3407.0,1864.0,1
24037.0,-14144.0,4116.0,3824.0,-3140.0,-3606.0,1016.0,1
24059.0,-17128.0,3844.0,-3552.0,-3204.0,-4588.0,2887.0,1
24081.0,-14124.0,-92.0,-2408.0,-2937.0,-4202.0,-1796.0,1
24103.0,-13720.0,3032.0,-1276.0,-4254.0,-1162.0,153.0,1
24125.0,-12048.0,3388.0,92.0,-9207.0,1940.0,-753.0,1
24147.0,-11912.0,-2004.0,-1600.0,-17476.0,3532.0,-3042.0,1
24169.0,-15324.0,436.0,-9756.0,-14230.0,4917.0,-1039.0,1
24191.0,-15496.0,-3640.0,-9060.0,-502.0,3500.0,-3168.0,1
24213.0,-16352.0,-9152.0,-5608.0,5253.0,3000.0,-2760.0,1
24235.0,-21644.0,25820.0,22100.0,3217.0,-2188.0,8804.0,1
24257.0,-21900.0,-492.0,-32768.0,14340.0,11844.0,-4451.0,1
24279.0,-14908.0,-808.0,6124.0,1342.0,-897.0,1742.0,1
24301.0,-15024.0,4696.0,976.0,427.0,6283.0,962.0,1
24323.0,-16024.0,1908.0,-532.0,-1490.0,5647.0,1026.0,1
24345.0,-16728.0,984.0,-980.0,-97.0,4994.0,998.0,1
24367.0,-17368.0,1760.0,-1256.0,-221.0,3962.0,893.0,1
24389.0,-17204.0,1548.0,-116.0,1435.0,2624.0,1454.0,1
24411.0,-16428.0,3568.0,-828.0,3124.0,2416.0,1585.0,1
24433.0,-15608.0,4808.0,-1508.0,1492.0,2976.0,732.0,1
24455.0,-15332.0,4468.0,-1348.0,-887.0,3309.0,-494.0,1
24477.0,-15760.0,3536.0,-1304.0,-1989.0,3197.0,-1231.0,1
24499.0,-16224.0,2908.0,-2000.0,-2305.0,2996.0,-1522.0,1
24521.0,-16460.0,2136.0,-2012.0,-2650.0,2787.0,-1400.0,1
24543.0,-16280.0,2556.0,-1892.0,-2690.0,2778.0,-1159.0,1
24565.0,-16148.0,3056.0,-1860.0,-3071.0,2595.0,-1256.0,1
24587.0,-16492.0,3400.0,-2352.0,-3298.0,2368.0,-1871.0,1
24609.0,-16636.0,2256.0,-2464.0,-2610.0,1752.0,-1945.0,1
24631.0,-16352.0,1984.0,-1756.0,-1913.0,1672.0,-1456.0,1
24653.0,-15964.0,1032.0,-1464.0,-1618.0,2907.0,-905.0,1
24675.0,-15220.0,2580.0,-1388.0,-1348.0,5444.0,-424.0,1
24697.0,-15508.0,2648.0,-1164.0,-2348.0,8616.0,-1099.0,1
24719.0,-15904.0,2572.0,-696.0,-2665.0,12449.0,-1666.0,1
24741.0,-24032.0,1204.0,2488.0,-412.0,9006.0,-1134.0,1
24763.0,-26996.0,-3216.0,424.0,16827.0,-10450.0,2140.0,1
24785.0,-17964.0,8484.0,-4168.0,11628.0,9466.0,-234.0,1
24807.0,-20260.0,5024.0,-1860.0,6593.0,10509.0,-1230.0,1
24829.0,-16664.0,4980.0,-3652.0,4485.0,10484.0,-860.0,1
24851.0,-14464.0,7440.0,8128.0,5081.0,6744.0,-511.0,1
24873.0,-10404.0,4324.0,11448.0,4588.0,-628.0,-470.0,1
24895.0,-11096.0,3236.0,9860.0,3503.0,-7430.0,1290.0,1
24917.0,-14524.0,4680.0,3216.0,346.0,-11656.0,4302.0,1
24939.0,-17252.0,2288.0,-3336.0,-5535.0,-13879.0,4266.0,1
24961.0,-19164.0,920.0,-8164.0,-6622.0,-13026.0,2083.0,1
24983.0,-18336.0,1544.0,-9316.0,-3584.0,-9420.0,-703.0,1
25005.0,-16656.0,-108.0,-8340.0,2378.0,-7536.0,-500.0,1
25027.0,-17608.0,1548.0,-1752.0,9562.0,-10538.0,841.0,1
25049.0,-17300.0,-1476.0,-8056.0,12442.0,-12534.0,2537.0,1
25071.0,-17132.0,1888.0,-9376.0,4047.0,-9336.0,4203.0,1
25093.0,-17188.0,1500.0,-7488.0,-3565.0,-3677.0,1867.0,1
25115.0,-13812.0,808.0,3776.0,-11849.0,-3936.0,2174.0,1
25137.0,-14956.0,1244.0,3244.0,-14652.0,-7797.0,-420.0,1
25159.0,-18380.0,2112.0,-6144.0,-7699.0,-9875.0,-716.0,1
25181.0,-19280.0,2740.0,-14944.0,-1736.0,-7479.0,1064.0,1
25203.0,-16680.0,5032.0,-10724.0,-729.0,-2217.0,1947.0,1
25225.0,-17032.0,3056.0,-6156.0,-254.0,3169.0,-9.0,1
25247.0,-14120.0,-284.0,7716.0,2903.0,732.0,-1360.0,1
25269.0,-13024.0,616.0,9000.0,9345.0,-4201.0,-524.0,1
25291.0,-14700.0,4940.0,4900.0,8166.0,-4877.0,1780.0,1
25313.0,-14924.0,3720.0,3940.0,2323.0,-3256.0,2685.0,1
25335.0,-14988.0,4056.0,408.0,-47.0,-3007.0,3177.0,1
25357.0,-15000.0,4616.0,2716.0,-4890.0,-2060.0,852.0,1
25379.0,-15020.0,1780.0,4664.0,-8097.0,-1412.0,-3927.0,1
25401.0,-15108.0,1532.0,7180.0,-7143.0,-1895.0,-2793.0,1
25423.0,-15428.0,4084.0,-3184.0,-16958.0,141.0,-2612.0,1
25445.0,-18864.0,1036.0,-14188.0,-1425.0,-3725.0,724.0,1
25467.0,-14512.0,720.0,-3920.0,-7103.0,-4630.0,1539.0,1
25489.0,-13248.0,1172.0,-5444.0,-2646.0,-1464.0,1927.0,1
25511.0,-13708.0,-700.0,-4204.0,-699.0,542.0,1506.0,1
25533.0,-13724.0,-1192.0,-4980.0,-9153.0,4871.0,713.0,1
25555.0,-17500.0,6492.0,10752.0,-10991.0,1550.0,3157.0,1
25577.0,-12356.0,1336.0,10964.0,-2545.0,2927.0,-3492.0,1
25599.0,-22372.0,19084.0,-11064.0,11680.0,10575.0,3313.0,1
25621.0,-20944.0,-700.0,-2864.0,-4023.0,4731.0,-4620.0,1
25643.0,-17524.0,-7068.0,-1256.0,2925.0,5756.0,-1273.0,1
25665.0,-16812.0,-344.0,-532.0,4013.0,5359.0,2842.0,1
25687.0,-16360.0,2808.0,48.0,2446.0,5009.0,3436.0,1
25709.0,-16012.0,5036.0,-1012.0,538.0,4121.0,2250.0,1
25731.0,-16568.0,3960.0,-1740.0,-1214.0,3601.0,433.0,1
25753.0,-16616.0,2856.0,-880.0,-1801.0,2627.0,115.0,1
25775.0,-16412.0,2380.0,-328.0,-1397.0,2096.0,-76.0,1
25797.0,-16276.0,3324.0,-1192.0,-2342.0,1284.0,-150.0,1
25819.0,-16472.0,2700.0,-988.0,-939.0,-2146.0,-1159.0,1
25841.0,-15168.0,3548.0,-12.0,1282.0,504.0,-986.0,1
25863.0,-15356.0,3192.0,-1084.0,1469.0,2533.0,-859.0,1
25885.0,-15980.0,3168.0,-1404.0,825.0,3172.0,-855.0,1
25907.0,-16496.0,2320.0,-1716.0,-1027.0,3525.0,-958.0,1
25929.0,-16084.0,2904.0,-1512.0,-2077.0,3918.0,-819.0,1
25951.0,-16232.0,2636.0,-2004.0,-2791.0,4113.0,-1284.0,1
25973.0,-16640.0,1388.0,-1768.0,-2174.0,2986.0,-1262.0,1
25995.0,-16092.0,1836.0,-1748.0,-1174.0,3707.0,-795.0,1
26017.0,-15476.0,2716.0,-1808.0,-311.0,5130.0,-588.0,1
26039.0,-16028.0,2848.0,-1616.0,-977.0,7385.0,-993.0,1
26061.0,-16520.0,2452.0,-828.0,-2046.0,10337.0,-1360.0,1
26083.0,-17424.0,896.0,-2040.0,-1995.0,13074.0,-1105.0,1
26105.0,-31652.0,1900.0,8880.0,-5351.0,-2627.0,-939.0,1
26127.0,-20040.0,344.0,-5848.0,25105.0,2233.0,1565.0,1
26149.0,-20348.0,8812.0,-924.0,15341.0,10485.0,1407.0,1
26171.0,-19164.0,7420.0,2956.0,6702.0,11945.0,-93.0,1
26193.0,-14672.0,4872.0,20656.0,3076.0,5336.0,-799.0,1
26215.0,-4664.0,1928.0,23572.0,476.0,-7986.0,-85.0,1
26237.0,-10004.0,-1676.0,20296.0,5954.0,-19989.0,79.0,1
26259.0,-17432.0,5688.0,7240.0,11299.0,-25999.0,5190.0,1
26281.0,-25120.0,2776.0,-9024.0,72.0,-25450.0,6590.0,1
26303.0,-29096.0,6176.0,-26508.0,-10224.0,-16544.0,4746.0,1
26325.0,-17664.0,2116.0,-23696.0,-20018.0,-9406.0,566.0,1
26347.0,-16212.0,-688.0,-20052.0,-11263.0,-278.0,-3162.0,1
26369.0,-15060.0,-1164.0,-9124.0,525.0,2299.0,-1126.0,1
26391.0,-13404.0,524.0,3216.0,6922.0,939.0,-1033.0,1
26413.0,-14960.0,-980.0,4936.0,6882.0,-3743.0,-1853.0,1
26435.0,-14680.0,5120.0,2108.0,2093.0,-7051.0,1699.0,1
26457.0,-16184.0,3236.0,3184.0,-2799.0,-10300.0,-872.0,1
26479.0,-18168.0,2224.0,-892.0,-443.0,-10323.0,431.0,1
26501.0,-17672.0,4420.0,-5696.0,-593.0,-7622.0,1325.0,1
26523.0,-17028.0,1592.0,-7204.0,995.0,-4107.0,372.0,1
26545.0,-14652.0,1464.0,-728.0,686.0,-1875.0,1068.0,1
26567.0,-14584.0,2792.0,2400.0,-368.0,-2029.0,458.0,1
26589.0,-15808.0,2308.0,2536.0,941.0,-4564.0,-440.0,1
26611.0,-17392.0,728.0,-2544.0,-202.0,-6081.0,2764.0,1
26633.0,-15152.0,7496.0,-4436.0,-2927.0,-3762.0,4392.0,1
26655.0,-15172.0,-80.0,-3192.0,-2758.0,-76.0,-1656.0,1
26677.0,-13520.0,-240.0,7124.0,3772.0,2538.0,-1826.0,1
26699.0,-15208.0,2460.0,2560.0,9218.0,525.0,1237.0,1
26721.0,-14972.0,1992.0,1332.0,2019.0,-2140.0,890.0,1
26743.0,-15764.0,2100.0,-2536.0,-440.0,-2226.0,2420.0,1
26765.0,-14292.0,-3160.0,-10768.0,-3027.0,1850.0,-1892.0,1
26787.0,-16512.0,1604.0,5616.0,-2083.0,2514.0,-759.0,1
26809.0,-15208.0,6144.0,9356.0,-9217.0,3485.0,-712.0,1
26831.0,-18316.0,1628.0,-468.0,-4921.0,5794.0,-1343.0,1
26853.0,-14884.0,4412.0,944.0,-1857.0,7398.0,-184.0,1
26875.0,-12396.0,8624.0,-4028.0,-6185.0,10084.0,-823.0,1
26897.0,-19872.0,1868.0,-7204.0,-3609.0,7420.0,-2666.0,1
26919.0,-17500.0,-1380.0,-164.0,509.0,5593.0,-878.0,1
26941.0,-16496.0,1864.0,-2672.0,2797.0,5120.0,821.0,1
26963.0,-17956.0,580.0,-588.0,3510.0,4386.0,2027.0,1
26985.0,-16304.0,2592.0,-584.0,3617.0,4027.0,2253.0,1
27007.0,-16228.0,3352.0,-1760.0,2754.0,3674.0,1105.0,1
27029.0,-16228.0,2956.0,-1720.0,2275.0,3042.0,827.0,1
27051.0,-16568.0,2908.0,-1288.0,425.0,2473.0,346.0,1
27073.0,-16080.0,3384.0,-1208.0,-540.0,2711.0,295.0,1
27095.0,-15928.0,3748.0,-1920.0,-1730.0,2553.0,-412.0,1
27117.0,-15944.0,3672.0,-1644.0,-2789.0,2439.0,-1063.0,1
27139.0,-15564.0,3180.0,-1608.0,-2149.0,2827.0,-1365.0,1
27161.0,-16152.0,3372.0,-1316.0,-1663.0,2672.0,-1276.0,1
27183.0,-16756.0,2236.0,-2040.0,-2030.0,2886.0,-1653.0,1
27205.0,-15956.0,3008.0,-2012.0,-2385.0,2910.0,-2087.0,1
27227.0,-16352.0,1716.0,-1672.0,-2124.0,3259.0,-1832.0,1
27249.0,-16384.0,2052.0,-2080.0,-801.0,4131.0,-1230.0,1
27271.0,-16340.0,2260.0,-2396.0,-579.0,4306.0,-948.0,1
27293.0,-16240.0,2628.0,-2952.0,-589.0,4540.0,-1105.0,1
27315.0,-16096.0,1888.0,-3048.0,-870.0,4885.0,-1130.0,1
27337.0,-17932.0,1560.0,-2104.0,-1051.0,6038.0,-1521.0,1
27359.0,-17812.0,2224.0,-352.0,-961.0,7267.0,-1978.0,1
27381.0,-17624.0,-1324.0,-3084.0,9987.0,-4677.0,-1102.0,1
27403.0,-16836.0,6248.0,-5544.0,13486.0,8870.0,-1455.0,1
27425.0,-23160.0,6052.0,-1092.0,7630.0,12831.0,-819.0,1
27447.0,-21220.0,5760.0,-1224.0,1602.0,14812.0,-835.0,1
27469.0,-14308.0,4128.0,5048.0,-7106.0,11664.0,-44.0,1
27491.0,-4460.0,1852.0,19060.0,-21872.0,-1725.0,-297.0,1
27513.0,-9808.0,-1808.0,11312.0,-10276.0,-13234.0,-1111.0,1
27535.0,-17668.0,3332.0,-1232.0,-1579.0,-17852.0,-674.0,1
27557.0,-20236.0,7096.0,-9416.0,-605.0,-14918.0,-1058.0,1
27579.0,-22688.0,9680.0,-16232.0,-2082.0,-7641.0,1616.0,1
27601.0,-16300.0,5740.0,-7168.0,-1664.0,-570.0,2564.0,1
27623.0,-12952.0,-964.0,7596.0,-5996.0,-4699.0,-272.0,1
27645.0,-14088.0,-2044.0,-1660.0,197.0,-11754.0,908.0,1
27667.0,-17188.0,4680.0,-2196.0,-622.0,-14391.0,2860.0,1
27689.0,-18168.0,56.0,-12824.0,1631.0,-10501.0,-1307.0,1
27711.0,-16480.0,4752.0,-17940.0,2964.0,-1937.0,2936.0,1
27733.0,-17964.0,1776.0,-18968.0,2904.0,5724.0,407.0,1
27755.0,-20280.0,-116.0,-11908.0,5528.0,7637.0,1681.0,1
27777.0,-15540.0,5164.0,8184.0,-3.0,4383.0,5968.0,1
27799.0,-12964.0,-896.0,16132.0,3597.0,-1285.0,-895.0,1
27821.0,-12208.0,1064.0,17292.0,5826.0,-8186.0,-1080.0,1
27843.0,-14092.0,5036.0,9656.0,4587.0,-12425.0,2427.0,1
27865.0,-17700.0,5900.0,1632.0,-1510.0,-11475.0,3990.0,1
27887.0,-19232.0,4812.0,-3944.0,-5134.0,-8962.0,1883.0,1
27909.0,-16900.0,3164.0,-4064.0,-5508.0,-5663.0,502.0,1
27931.0,-15016.0,1396.0,-4044.0,-6146.0,-1300.0,-2089.0,1
27953.0,-14964.0,-164.0,-8632.0,-3978.0,215.0,-571.0,1
27975.0,-13116.0,-8.0,-2464.0,-5789.0,-680.0,-1383.0,1
27997.0,-12708.0,-1888.0,-2136.0,-4883.0,-1759.0,-3633.0,1
28019.0,-14028.0,512.0,-3680.0,-1470.0,-1881.0,-3176.0,1
28041.0,-14020.0,-172.0,-8000.0,-1069.0,654.0,-3281.0,1
28063.0,-15580.0,-2392.0,-17096.0,1330.0,6025.0,-467.0,1
28085.0,-32768.0,21252.0,-7484.0,-5334.0,3017.0,10017.0,1
28107.0,-14168.0,8736.0,5344.0,6559.0,-1187.0,-5610.0,1
28129.0,-20324.0,-4960.0,-1412.0,-5430.0,3115.0,-4746.0,1
28151.0,-15500.0,-1136.0,-2264.0,-1178.0,4947.0,-566.0,1
28173.0,-17376.0,-936.0,-488.0,-3827.0,4400.0,1796.0,1
28195.0,-16276.0,2540.0,-1584.0,-4029.0,3127.0,1218.0,1
28217.0,-16104.0,3496.0,-976.0,-3943.0,2344.0,1221.0,1
28239.0,-17312.0,1712.0,-324.0,2671.0,-1836.0,862.0,1
28261.0,-15352.0,3348.0,-304.0,1581.0,170.0,975.0,1
28283.0,-15604.0,3744.0,-20.0,-153.0,1772.0,115.0,1
28305.0,-14964.0,4004.0,224.0,-1780.0,3625.0,-838.0,1
28327.0,-15872.0,2940.0,-812.0,-2834.0,5433.0,-1339.0,1
28349.0,-16372.0,2404.0,-1640.0,-2534.0,5840.0,-1578.0,1
28371.0,-16332.0,2172.0,-2284.0,-2366.0,5148.0,-1568.0,1
28393.0,-15716.0,2636.0,-2264.0,-2366.0,4468.0,-1680.0,1
28415.0,-16736.0,2192.0,-2288.0,-2344.0,3450.0,-1720.0,1
28437.0,-16372.0,2900.0,-2312.0,-2210.0,2910.0,-1974.0,1
28459.0,-16828.0,1192.0,-2348.0,-2259.0,1769.0,-2189.0,1
28481.0,-16904.0,764.0,-2028.0,-1062.0,2196.0,-1381.0,1
28503.0,-16496.0,1592.0,-2324.0,808.0,834.0,-523.0,1
28525.0,-16172.0,768.0,-2020.0,-551.0,2165.0,-482.0,1
28547.0,-19184.0,436.0,-1096.0,1031.0,404.0,-2.0,1
28569.0,-17540.0,1792.0,-236.0,6366.0,-2526.0,-856.0,1
28591.0,-14340.0,3520.0,-908.0,4288.0,5717.0,-1968.0,1
28613.0,-17636.0,4212.0,-1232.0,4220.0,11085.0,-1737.0,1
28635.0,-20720.0,2788.0,-1432.0,7064.0,13247.0,-838.0,1
28657.0,-21292.0,2340.0,-1940.0,4704.0,12871.0,-821.0,1
28679.0,-19644.0,692.0,-3760.0,2830.0,12106.0,-559.0,1
28701.0,-16288.0,3984.0,1004.0,3041.0,11045.0,-578.0,1
28723.0,-10492.0,3800.0,13116.0,-278.0,4453.0,-948.0,1
28745.0,-10868.0,1780.0,13164.0,1466.0,-4066.0,-687.0,1
28767.0,-13900.0,3192.0,8136.0,3631.0,-10099.0,1492.0,1
28789.0,-17048.0,3160.0,3084.0,996.0,-13810.0,2183.0,1
28811.0,-20592.0,3704.0,-2664.0,120.0,-15937.0,3534.0,1
28833.0,-21620.0,5188.0,-5084.0,-2955.0,-15437.0,3125.0,1
28855.0,-18052.0,6140.0,-5200.0,-5230.0,-12673.0,1718.0,1
28877.0,-16972.0,3756.0,-292.0,-5472.0,-12070.0,1928.0,1
28899.0,-16336.0,2528.0,1268.0,-1859.0,-13784.0,2949.0,1
28921.0,-16472.0,344.0,-6152.0,-1991.0,-13683.0,3056.0,1
28943.0,-18456.0,1616.0,-10224.0,-3124.0,-12339.0,3432.0,1
28965.0,-17592.0,-1692.0,-9936.0,-984.0,-10131.0,-99.0,1
28987.0,-16288.0,-312.0,-9880.0,3383.0,-6427.0,1053.0,1
29009.0,-16208.0,460.0,-2968.0,4456.0,-4728.0,1073.0,1
29031.0,-14952.0,360.0,4408.0,4042.0,-5743.0,544.0,1
29053.0,-15808.0,2384.0,4824.0,-1726.0,-6405.0,-661.0,1
29075.0,-18088.0,5008.0,-9952.0,-1838.0,-6413.0,3799.0,1
29097.0,-15444.0,4752.0,-3828.0,-6626.0,-6935.0,2284.0,1
29119.0,-16548.0,280.0,-9056.0,-4955.0,-2425.0,258.0,1
29141.0,-16264.0,3472.0,-2912.0,-2147.0,1382.0,912.0,1
29163.0,-15816.0,3432.0,3836.0,-538.0,832.0,845.0,1
29185.0,-14108.0,1768.0,7084.0,105.0,-3683.0,2295.0,1
29207.0,-14500.0,1364.0,5868.0,-1819.0,-6993.0,1811.0,1
29229.0,-15664.0,-196.0,-2456.0,-1510.0,-5084.0,1348.0,1
29251.0,-15776.0,828.0,-7532.0,-1718.0,44.0,887.0,1
29273.0,-15460.0,-340.0,-4516.0,-2067.0,4920.0,-1338.0,1
29295.0,-16216.0,1640.0,660.0,1503.0,4873.0,-791.0,1
29317.0,-14584.0,1040.0,2684.0,1634.0,4120.0,-865.0,1
29339.0,-15220.0,3788.0,4660.0,621.0,4203.0,361.0,1
29361.0,-14992.0,3572.0,6092.0,-1018.0,3075.0,-414.0,1
29383.0,-15516.0,3292.0,6092.0,320.0,2900.0,-52.0,1
29405.0,-12240.0,-1084.0,9824.0,-2673.0,4043.0,-3151.0,1
29427.0,-12616.0,896.0,5164.0,-2652.0,6412.0,-915.0,1
29449.0,-10252.0,32767.0,-32768.0,16241.0,23936.0,6866.0,1
29471.0,-32768.0,-2584.0,1116.0,-11540.0,-2464.0,-9926.0,1
29493.0,-9516.0,-380.0,-832.0,-3161.0,5778.0,-5044.0,1
29515.0,-15668.0,-728.0,-1348.0,2142.0,3809.0,327.0,1
29537.0,-17308.0,24.0,-616.0,1223.0,4274.0,3194.0,1
29559.0,-16488.0,4412.0,-836.0,1009.0,3578.0,2261.0,1
29581.0,-15992.0,4704.0,-2452.0,257.0,2205.0,701.0,1
29603.0,-16616.0,2576.0,-1452.0,480.0,1445.0,157.0,1
29625.0,-16760.0,2012.0,-376.0,815.0,246.0,-77.0,1
29647.0,-17008.0,3292.0,-632.0,-1103.0,-441.0,-1020.0,1
29669.0,-15836.0,4708.0,-1180.0,-452.0,-251.0,-850.0,1
29691.0,-15504.0,3456.0,-664.0,-1591.0,377.0,-1353.0,1
29713.0,-15308.0,3236.0,-376.0,-951.0,1469.0,-1050.0,1
29735.0,-15976.0,2820.0,-1244.0,186.0,1676.0,-483.0,1
29757.0,-15892.0,2828.0,-1336.0,-712.0,930.0,-918.0,1
29779.0,-16492.0,1768.0,-1012.0,-2499.0,622.0,-1558.0,1
29801.0,-16272.0,2276.0,-988.0,-1299.0,1672.0,-638.0,1
29823.0,-16700.0,2088.0,-892.0,-976.0,2351.0,-372.0,1
29845.0,-16028.0,1876.0,-1044.0,-495.0,3417.0,-127.0,1
29867.0,-15496.0,2660.0,-1116.0,37.0,5038.0,344.0,1
29889.0,-15072.0,3888.0,-1412.0,453.0,7322.0,547.0,1
29911.0,-15596.0,3812.0,-832.0,-2013.0,10415.0,20.0,1
29933.0,-16392.0,3272.0,-484.0,-3898.0,13941.0,-735.0,1
29955.0,-18408.0,1908.0,-2460.0,-3213.0,16167.0,-747.0,1
29977.0,-22500.0,1724.0,-2460.0,-2715.0,14368.0,-611.0,1
29999.0,-31836.0,1428.0,5440.0,5834.0,-3668.0,-410.0,1
30021.0,-17852.0,4076.0,-6000.0,22373.0,5956.0,-672.0,1
30043.0,-19816.0,5124.0,-672.0,9053.0,11182.0,-1508.0,1
30065.0,-15736.0,4004.0,-2952.0,4079.0,12639.0,-2349.0,1
30087.0,-13360.0,5524.0,10716.0,-96.0,6791.0,276.0,1
30109.0,-5324.0,3384.0,20528.0,483.0,-6765.0,-465.0,1
30131.0,-11940.0,2668.0,13588.0,4187.0,-16571.0,2211.0,1
30153.0,-16344.0,4964.0,4976.0,-366.0,-22215.0,5455.0,1
30175.0,-19232.0,3924.0,-3016.0,-5366.0,-23613.0,4759.0,1
30197.0,-23940.0,3068.0,-10936.0,-5324.0,-21891.0,2392.0,1
30219.0,-21608.0,2972.0,-15532.0,-5172.0,-18447.0,753.0,1
30241.0,-17404.0,5236.0,-11748.0,-2859.0,-14055.0,1381.0,1
30263.0,-17308.0,2548.0,-7656.0,-2288.0,-11572.0,2708.0,1
30285.0,-16740.0,2208.0,-9640.0,-1212.0,-10591.0,3543.0,1
30307.0,-14908.0,-496.0,-6600.0,-2604.0,-6857.0,1257.0,1
30329.0,-16032.0,-480.0,-7920.0,-345.0,-3236.0,939.0,1
30351.0,-16676.0,380.0,-8080.0,1807.0,-719.0,1578.0,1
30373.0,-15456.0,2300.0,1292.0,271.0,459.0,884.0,1
30395.0,-13880.0,4308.0,5884.0,-551.0,-1804.0,2462.0,1
30417.0,-14052.0,3392.0,5076.0,-2951.0,-4233.0,1420.0,1
30439.0,-14212.0,1860.0,1408.0,-3814.0,-4697.0,1267.0,1
30461.0,-15624.0,2124.0,-4140.0,-4630.0,-2594.0,448.0,1
30483.0,-15092.0,3444.0,-7108.0,-6192.0,893.0,777.0,1
30505.0,-14748.0,-32.0,-11464.0,-5444.0,2707.0,-757.0,1
30527.0,-13748.0,424.0,-5812.0,-2841.0,4571.0,-269.0,1
30549.0,-12072.0,568.0,6976.0,-1357.0,2399.0,-1833.0,1
30571.0,-16728.0,11664.0,14908.0,7205.0,1892.0,-2141.0,1
30593.0,-12424.0,1944.0,10424.0,697.0,5693.0,-5308.0,1
30615.0,-12676.0,1100.0,4612.0,-1787.0,2499.0,-1950.0,1
30637.0,-22132.0,24420.0,-29928.0,18930.0,16710.0,13618.0,1
30659.0,-32768.0,12152.0,15100.0,-1056.0,-15060.0,-7348.0,1
30681.0,-13480.0,-3940.0,-1304.0,-5310.0,4352.0,-4855.0,1
30703.0,-14552.0,452.0,-508.0,2162.0,5458.0,1908.0,1
30725.0,-17380.0,3164.0,-776.0,2812.0,5838.0,4546.0,1
30747.0,-14700.0,6664.0,-1532.0,1881.0,5100.0,2186.0,1
30769.0,-16064.0,4968.0,-2032.0,3192.0,2289.0,-9.0,1
30791.0,-16444.0,2376.0,-2492.0,4971.0,1951.0,416.0,1
30813.0,-17048.0,2184.0,-1796.0,4418.0,728.0,728.0,1
30835.0,-16776.0,2260.0,-1692.0,4711.0,4.0,604.0,1
30857.0,-16276.0,3336.0,-964.0,2657.0,30.0,304.0,1
30879.0,-15648.0,3584.0,-1016.0,1273.0,506.0,-125.0,1
30901.0,-15296.0,3308.0,-1420.0,2171.0,965.0,-87.0,1
30923.0,-15568.0,4020.0,-1312.0,2781.0,1314.0,-11.0,1
30945.0,-15992.0,4040.0,-1504.0,1690.0,1175.0,-74.0,1
30967.0,-15596.0,3912.0,-2052.0,-149.0,837.0,-626.0,1
30989.0,-16204.0,2792.0,-2388.0,-724.0,420.0,-889.0,1
31011.0,-16316.0,3688.0,-1856.0,-1242.0,267.0,-1243.0,1
31033.0,-15988.0,2364.0,-1336.0,-811.0,1024.0,-684.0,1
31055.0,-15868.0,3120.0,-1692.0,-610.0,1935.0,-348.0,1
31077.0,-15352.0,3756.0,-1536.0,-1131.0,2983.0,-461.0,1
31099.0,-15212.0,4140.0,-2136.0,-2006.0,4067.0,-739.0,1
31121.0,-15744.0,3160.0,-2488.0,-3113.0,4870.0,-1197.0,1
31143.0,-16072.0,2380.0,-2852.0,-3892.0,5666.0,-1403.0,1
31165.0,-17072.0,2068.0,-2328.0,-4736.0,7072.0,-1654.0,1
31187.0,-19748.0,500.0,-84.0,-3260.0,6234.0,-2182.0,1
31209.0,-19012.0,-124.0,-1372.0,-2050.0,1912.0,-3577.0,1
31231.0,-19204.0,5692.0,-1000.0,1542.0,9328.0,-132.0,1
31253.0,-20976.0,3304.0,-804.0,7741.0,9490.0,333.0,1
31275.0,-20320.0,4080.0,-1300.0,3978.0,11155.0,-42.0,1
31297.0,-16844.0,3072.0,-2452.0,1432.0,11362.0,-657.0,1
31319.0,-13508.0,6824.0,13012.0,-1316.0,5091.0,490.0,1
31341.0,-9136.0,3048.0,15048.0,-3960.0,-4308.0,-1295.0,1
31363.0,-12896.0,5420.0,9484.0,364.0,-12154.0,1155.0,1
31385.0,-17688.0,3740.0,128.0,950.0,-16834.0,2049.0,1
31407.0,-18648.0,3364.0,-11276.0,3811.0,-16735.0,3265.0,1
31429.0,-20128.0,5584.0,-16784.0,1504.0,-12930.0,2748.0,1
31451.0,-17456.0,1568.0,-15772.0,4118.0,-7184.0,52.0,1
31473.0,-15948.0,2060.0,-7268.0,3524.0,-1802.0,-135.0,1
31495.0,-13032.0,2336.0,284.0,-1366.0,-78.0,1499.0,1
31517.0,-15048.0,1952.0,1260.0,281.0,-2731.0,1750.0,1
31539.0,-17332.0,2540.0,2712.0,-1439.0,-7019.0,177.0,1
31561.0,-16456.0,-1332.0,3324.0,188.0,-9760.0,-3879.0,1
31583.0,-13892.0,1616.0,-1604.0,603.0,-7587.0,-362.0,1
31605.0,-15520.0,3592.0,-6460.0,-5263.0,-2678.0,3285.0,1
31627.0,-20600.0,3508.0,-17992.0,-7762.0,-1412.0,4200.0,1
31649.0,-17876.0,3648.0,-9476.0,-11262.0,-3267.0,-2268.0,1
31671.0,-14260.0,-3660.0,-1588.0,1028.0,-2995.0,-8059.0,1
31693.0,-13904.0,2692.0,2744.0,7967.0,-1951.0,-1096.0,1
31715.0,-14164.0,5544.0,1312.0,1065.0,-1709.0,1482.0,1
31737.0,-16568.0,2372.0,1576.0,-7621.0,-2457.0,3507.0,1
31759.0,-16404.0,7484.0,1668.0,-11880.0,-4003.0,2514.0,1
31781.0,-15676.0,3172.0,1716.0,-7437.0,-7172.0,-1454.0,1
31803.0,-14336.0,2348.0,1568.0,546.0,-7284.0,642.0,1
31825.0,-14140.0,1908.0,12.0,2175.0,-7535.0,1660.0,1
31847.0,-14272.0,2592.0,-480.0,3325.0,-7088.0,3678.0,1
31869.0,-15328.0,2652.0,-5464.0,-3616.0,-4724.0,-242.0,1
31891.0,-16096.0,-640.0,-7832.0,-4515.0,-2103.0,-2545.0,1
31913.0,-13196.0,-1688.0,-8956.0,-3206.0,2541.0,-2494.0,1
31935.0,-12508.0,-3160.0,-10672.0,-3598.0,8952.0,-3716.0,1
31957.0,-18672.0,-2344.0,-12796.0,-10883.0,15037.0,1029.0,1
31979.0,-10940.0,11568.0,24884.0,759.0,-3828.0,3468.0,1
32001.0,-27268.0,-252.0,-21788.0,10450.0,7630.0,-31.0,1
32023.0,-16236.0,1728.0,4492.0,5345.0,-295.0,1852.0,1
32045.0,-14496.0,3768.0,80.0,2243.0,3367.0,-19.0,1
32067.0,-16648.0,2020.0,-1148.0,395.0,3011.0,603.0,1
32089.0,-16784.0,3740.0,-1304.0,-473.0,2386.0,793.0,1
32111.0,-16876.0,2040.0,-816.0,-923.0,382.0,-138.0,1
32133.0,-16008.0,2836.0,-416.0,-551.0,1039.0,518.0,1
32155.0,-16432.0,2528.0,-208.0,928.0,1940.0,722.0,1
32177.0,-15552.0,4024.0,-420.0,2270.0,2764.0,425.0,1
32199.0,-15916.0,4040.0,-640.0,1377.0,2945.0,-682.0,1
32221.0,-15568.0,3668.0,-1144.0,780.0,3168.0,-1301.0,1
32243.0,-16124.0,3048.0,-1676.0,770.0,3070.0,-1513.0,1
32265.0,-15788.0,3504.0,-1320.0,166.0,2902.0,-1622.0,1
32287.0,-16228.0,2744.0,-1792.0,-886.0,2763.0,-1831.0,1
32309.0,-16200.0,2616.0,-2064.0,-1635.0,2678.0,-1958.0,1
32331.0,-16064.0,2080.0,-1848.0,-2391.0,2857.0,-1990.0,1
32353.0,-16792.0,1132.0,-1768.0,-2285.0,4015.0,-1339.0,1
32375.0,-15936.0,2232.0,-1500.0,-2207.0,5846.0,-596.0,1
32397.0,-15264.0,2244.0,-1468.0,-4228.0,8458.0,-730.0,1
32419.0,-15184.0,2012.0,-1448.0,-6190.0,12634.0,-1256.0,1
32441.0,-17336.0,2220.0,-900.0,-7230.0,17228.0,-2397.0,1
32463.0,-25820.0,3120.0,2764.0,-4044.0,13228.0,-2243.0,1
32485.0,-26672.0,-1304.0,-2972.0,18427.0,-708.0,1073.0,1
32507.0,-22636.0,5812.0,-2716.0,17287.0,10886.0,63.0,1
32529.0,-17644.0,4596.0,-1056.0,7551.0,12068.0,-1026.0,1
32551.0,-16740.0,6804.0,1764.0,2459.0,10037.0,-2124.0,1
32573.0,-12884.0,4552.0,3944.0,4179.0,3873.0,-2038.0,1
32595.0,-10164.0,2208.0,1760.0,4215.0,-791.0,-1268.0,1
32617.0,-9024.0,3264.0,1160.0,-54.0,-3624.0,891.0,1
32639.0,-9184.0,3220.0,4056.0,-6436.0,-6588.0,307.0,1
32661.0,-11528.0,2752.0,2944.0,-10255.0,-10980.0,1310.0,1
32683.0,-15548.0,2560.0,800.0,-11822.0,-15494.0,2665.0,1
32705.0,-17184.0,3388.0,-2492.0,-13455.0,-17914.0,4335.0,1
32727.0,-19388.0,2460.0,-7592.0,-12604.0,-17237.0,1987.0,1
32749.0,-21308.0,1052.0,-9740.0,-8934.0,-14363.0,-1014.0,1
32771.0,-18900.0,2820.0,-9080.0,-5892.0,-11657.0,-729.0,1
32793.0,-17500.0,4296.0,-7376.0,-2999.0,-7204.0,-945.0,1
32815.0,-18108.0,508.0,-14792.0,1869.0,-4107.0,2284.0,1
32837.0,-16436.0,3988.0,-9968.0,-118.0,-2289.0,3885.0,1
32859.0,-15592.0,-124.0,-5040.0,-197.0,-862.0,-2486.0,1
32881.0,-14532.0,-3824.0,2092.0,7463.0,-1017.0,-4325.0,1
32903.0,-14540.0,944.0,5580.0,10033.0,-2732.0,-477.0,1
32925.0,-17320.0,4860.0,-1516.0,8760.0,-5794.0,4651.0,1
32947.0,-16788.0,8112.0,-1812.0,-3661.0,-7198.0,2443.0,1
32969.0,-17776.0,-1068.0,-3044.0,-4679.0,-7046.0,-3962.0,1
32991.0,-14784.0,3308.0,-1884.0,1387.0,-1606.0,-246.0,1
33013.0,-15964.0,2944.0,-464.0,-2192.0,114.0,2113.0,1
33035.0,-15424.0,4644.0,1676.0,-6547.0,-767.0,5588.0,1
33057.0,-15640.0,5488.0,4284.0,-11652.0,-3531.0,927.0,1
33079.0,-15232.0,92.0,2552.0,-3222.0,-5604.0,-1718.0,1
33101.0,-14420.0,2800.0,-796.0,3499.0,-5359.0,1817.0,1
33123.0,-13372.0,372.0,-3028.0,2000.0,-4209.0,2379.0,1
33145.0,-12360.0,-2444.0,-4140.0,-2133.0,-2201.0,747.0,1
33167.0,-13572.0,-1936.0,-7944.0,-3200.0,337.0,-22.0,1
33189.0,-12740.0,-3228.0,-7180.0,-3166.0,1500.0,-2566.0,1
33211.0,-14224.0,-956.0,-6624.0,166.0,3785.0,-2285.0,1
33233.0,-16448.0,18684.0,23340.0,1131.0,-345.0,4673.0,1
33255.0,-26464.0,15952.0,-31620.0,133.0,11359.0,2962.0,1
33277.0,-22908.0,-1728.0,9940.0,-9791.0,150.0,-1083.0,1
33299.0,-16412.0,-4356.0,1960.0,534.0,7854.0,-1752.0,1
33321.0,-18276.0,-1836.0,784.0,-1938.0,8057.0,3827.0,1
33343.0,-15928.0,4236.0,-572.0,-1013.0,7092.0,3058.0,1
33365.0,-14776.0,6796.0,-1796.0,-851.0,5671.0,749.0,1
33387.0,-16512.0,2844.0,-2496.0,2688.0,2040.0,-220.0,1
33409.0,-16832.0,2092.0,-2120.0,2753.0,1421.0,-69.0,1
33431.0,-16716.0,2188.0,-1800.0,3005.0,650.0,342.0,1
33453.0,-16348.0,4020.0,-1536.0,351.0,760.0,177.0,1
33475.0,-15700.0,3696.0,-1472.0,-611.0,1006.0,-563.0,1
33497.0,-15208.0,3876.0,-1216.0,-802.0,1907.0,-832.0,1
33519.0,-15140.0,2796.0,-1088.0,-1394.0,1963.0,-839.0,1
33541.0,-15892.0,3320.0,-1684.0,-1464.0,1938.0,-327.0,1
33563.0,-15712.0,2852.0,-1524.0,-2071.0,2440.0,-826.0,1
33585.0,-15824.0,4312.0,-1736.0,-3175.0,3937.0,-1818.0,1
33607.0,-15904.0,2512.0,-2212.0,-2682.0,4025.0,-1942.0,1
33629.0,-16556.0,1456.0,-2484.0,-1380.0,4504.0,-1444.0,1
33651.0,-16472.0,1528.0,-2356.0,-291.0,5014.0,-736.0,1
33673.0,-15868.0,2460.0,-2260.0,24.0,6367.0,-315.0,1
33695.0,-16228.0,3048.0,-1344.0,-566.0,8997.0,-493.0,1
33717.0,-17924.0,2820.0,-2144.0,-1840.0,12223.0,-1363.0,1
33739.0,-27416.0,2080.0,2536.0,-743.0,1565.0,-624.0,1
33761.0,-22976.0,-1864.0,-2048.0,20588.0,-2649.0,933.0,1
33783.0,-23136.0,10416.0,-4972.0,18418.0,13357.0,2622.0,1
33805.0,-20628.0,4424.0,500.0,11221.0,14721.0,-1164.0,1
33827.0,-17276.0,5552.0,-888.0,3372.0,14389.0,-616.0,1
33849.0,-10888.0,5628.0,20568.0,-3593.0,5016.0,228.0,1
33871.0,-3448.0,1552.0,24100.0,-3341.0,-11363.0,-1404.0,1
33893.0,-10840.0,1888.0,14820.0,3693.0,-22341.0,2457.0,1
33915.0,-18032.0,5744.0,3320.0,2859.0,-26529.0,3728.0,1
33937.0,-24724.0,-4.0,-12532.0,-2839.0,-23205.0,4295.0,1
33959.0,-27240.0,6592.0,-27268.0,-10086.0,-13551.0,3568.0,1
33981.0,-16872.0,4044.0,-26268.0,-14271.0,-4719.0,152.0,1
34003.0,-17000.0,548.0,-16992.0,-9776.0,1639.0,-2914.0,1
34025.0,-15768.0,1028.0,-4580.0,-5171.0,3647.0,-2498.0,1
34047.0,-15428.0,-2040.0,1552.0,767.0,713.0,-2867.0,1
34069.0,-13820.0,-1508.0,1128.0,790.0,-1655.0,509.0,1
34091.0,-13824.0,1984.0,4112.0,-4493.0,-5401.0,858.0,1
34113.0,-16280.0,2168.0,2664.0,-7292.0,-8818.0,-340.0,1
34135.0,-18248.0,6332.0,1552.0,-4580.0,-9572.0,362.0,1
34157.0,-18724.0,7396.0,-92.0,1891.0,-8435.0,1495.0,1
34179.0,-17148.0,4996.0,400.0,6436.0,-5661.0,2760.0,1
34201.0,-14528.0,1976.0,6292.0,5455.0,-6562.0,2048.0,1
34223.0,-14220.0,1712.0,6612.0,2589.0,-9514.0,1147.0,1
34245.0,-17128.0,4552.0,-4760.0,3097.0,-11193.0,4762.0,1
34267.0,-16128.0,6528.0,-5348.0,-1881.0,-10358.0,1861.0,1
34289.0,-16988.0,-1416.0,-7952.0,408.0,-6952.0,-1713.0,1
34311.0,-14840.0,912.0,-6476.0,3857.0,-2063.0,1362.0,1
34333.0,-13868.0,3636.0,-2920.0,-735.0,211.0,3008.0,1
34355.0,-13140.0,1452.0,-648.0,-6895.0,-347.0,1032.0,1
34377.0,-12704.0,-2236.0,-2656.0,-7255.0,-1080.0,-2133.0,1
34399.0,-13784.0,-2612.0,-6864.0,-5609.0,844.0,-2281.0,1
34421.0,-12700.0,-3668.0,-11180.0,-2591.0,4622.0,-2580.0,1
34443.0,-17936.0,-456.0,1436.0,-6087.0,5052.0,475.0,1
34465.0,-22760.0,32336.0,27516.0,11368.0,-218.0,8063.0,1
34487.0,-15600.0,1788.0,-27816.0,15051.0,13963.0,-8171.0,1
34509.0,-16996.0,-5424.0,6140.0,-2126.0,-550.0,-3226.0,1
34531.0,-18724.0,-1684.0,2072.0,-1357.0,5664.0,-26.0,1
34553.0,-17384.0,632.0,0.0,629.0,6232.0,3501.0,1
34575.0,-15540.0,4972.0,200.0,1641.0,4762.0,3094.0,1
34597.0,-14912.0,6696.0,-1020.0,-1181.0,2978.0,1181.0,1
34619.0,-16768.0,1976.0,-588.0,251.0,1778.0,-743.0,1
34641.0,-17168.0,864.0,144.0,6412.0,1287.0,386.0,1
34663.0,-16552.0,2920.0,-472.0,6463.0,1739.0,1455.0,1
34685.0,-16468.0,3968.0,-676.0,2832.0,1414.0,1026.0,1
34707.0,-15240.0,4620.0,-448.0,-734.0,729.0,-616.0,1
34729.0,-15084.0,4224.0,-372.0,-389.0,1489.0,-1218.0,1
34751.0,-15552.0,4120.0,-892.0,544.0,1812.0,-877.0,1
34773.0,-15852.0,2832.0,-1140.0,2128.0,784.0,-494.0,1
34795.0,-15560.0,4332.0,-1108.0,1334.0,837.0,-375.0,1
34817.0,-15712.0,3824.0,-960.0,-1365.0,649.0,-1537.0,1
34839.0,-16528.0,4044.0,-992.0,-2252.0,1030.0,-2595.0,1
34861.0,-16156.0,1624.0,-304.0,-1491.0,2143.0,-2235.0,1
34883.0,-15812.0,1672.0,-72.0,-344.0,3635.0,-1398.0,1
34905.0,-15708.0,2652.0,-1028.0,-84.0,5535.0,10.0,1
34927.0,-16224.0,2672.0,-944.0,-1074.0,6348.0,292.0,1
34949.0,-16964.0,3600.0,-1824.0,-3080.0,6714.0,-660.0,1
34971.0,-17060.0,2980.0,-1100.0,-4412.0,6808.0,-2198.0,1
34993.0,-21004.0,-1488.0,956.0,-6696.0,1116.0,-4838.0,1
35015.0,-15280.0,4600.0,-2396.0,918.0,7218.0,-2672.0,1
35037.0,-19556.0,6732.0,1016.0,4207.0,10084.0,-1113.0,1
35059.0,-21708.0,5468.0,3416.0,6814.0,13143.0,-146.0,1
35081.0,-21536.0,4844.0,824.0,3564.0,12841.0,152.0,1
35103.0,-15976.0,4800.0,15600.0,3620.0,6856.0,1042.0,1
35125.0,-11940.0,4792.0,17196.0,-726.0,-2614.0,2819.0,1
35147.0,-12320.0,3580.0,12752.0,-1250.0,-9304.0,1745.0,1
35169.0,-14076.0,1504.0,5304.0,-3329.0,-14189.0,2052.0,1
35191.0,-16816.0,1408.0,-3192.0,-1514.0,-16555.0,1155.0,1
35213.0,-18416.0,2960.0,-13600.0,4021.0,-15734.0,2642.0,1
35235.0,-19960.0,4220.0,-18472.0,147.0,-12580.0,771.0,1
35257.0,-17640.0,-92.0,-18248.0,-2395.0,-8654.0,-3579.0,1
35279.0,-15452.0,484.0,-17924.0,3881.0,-2891.0,418.0,1
35301.0,-16328.0,1848.0,-14340.0,1903.0,689.0,2282.0,1
35323.0,-15312.0,1852.0,-7168.0,-4538.0,1773.0,-292.0,1
35345.0,-14976.0,-788.0,-1340.0,-3958.0,-33.0,-3223.0,1
35367.0,-14664.0,-2808.0,4240.0,4628.0,-1793.0,-3570.0,1
35389.0,-14536.0,708.0,1740.0,6823.0,-1395.0,-465.0,1
35411.0,-18268.0,2680.0,-2224.0,2490.0,-1958.0,4209.0,1
35433.0,-17640.0,8576.0,468.0,-6844.0,-2252.0,4998.0,1
35455.0,-18044.0,1048.0,5092.0,-7794.0,-5201.0,-3893.0,1
35477.0,-16728.0,1328.0,2884.0,3188.0,-4793.0,-1627.0,1
35499.0,-14820.0,4480.0,3944.0,5918.0,-3322.0,-4.0,1
35521.0,-15284.0,3072.0,2328.0,-186.0,-1755.0,1686.0,1
35543.0,-16876.0,3640.0,760.0,-7628.0,-1507.0,4231.0,1
35565.0,-15476.0,7160.0,2840.0,-13987.0,-2324.0,3071.0,1
35587.0,-15268.0,-740.0,2540.0,-9293.0,-5373.0,-2417.0,1
35609.0,-14356.0,1376.0,3944.0,-413.0,-6515.0,-587.0,1
35631.0,-14124.0,2388.0,2552.0,1504.0,-6499.0,437.0,1
35653.0,-13996.0,5624.0,-460.0,-3.0,-5272.0,4333.0,1
35675.0,-14844.0,5964.0,-4364.0,-7392.0,-3719.0,2407.0,1
35697.0,-14588.0,1616.0,-2236.0,-6401.0,-3856.0,-922.0,1
35719.0,-13376.0,1852.0,-5188.0,-4966.0,-888.0,-1283.0,1
35741.0,-13100.0,-112.0,-5932.0,-4897.0,2157.0,-1696.0,1
35763.0,-12104.0,-2832.0,-7880.0,-6911.0,5518.0,-2668.0,1
35785.0,-15736.0,-4028.0,-3856.0,-6634.0,6539.0,-3142.0,1
35807.0,-30616.0,14516.0,9344.0,953.0,1632.0,4563.0,1
35829.0,-18280.0,13960.0,-15744.0,8898.0,13537.0,1582.0,1
35851.0,-25824.0,-3952.0,3028.0,-10083.0,1750.0,-2294.0,1
35873.0,-15772.0,28.0,-804.0,9.0,8000.0,1966.0,1
35895.0,-15252.0,2992.0,52.0,-283.0,6725.0,3855.0,1
35917.0,-14488.0,5624.0,-852.0,20.0,6602.0,2822.0,1
35939.0,-16084.0,6560.0,276.0,580.0,4579.0,1320.0,1
35961.0,-15876.0,-592.0,-3668.0,4712.0,-2291.0,-584.0,1
35983.0,-16692.0,1440.0,-1336.0,1536.0,1370.0,527.0,1
36005.0,-16604.0,2280.0,-1456.0,908.0,2435.0,889.0,1
36027.0,-16180.0,3788.0,-1484.0,-680.0,2781.0,354.0,1
36049.0,-15664.0,4616.0,-2152.0,-1731.0,2706.0,-625.0,1
36071.0,-16068.0,2996.0,-1744.0,-1430.0,2228.0,-1328.0,1
36093.0,-17212.0,1748.0,-1692.0,1262.0,-375.0,-1301.0,1
36115.0,-15752.0,3012.0,-1836.0,753.0,296.0,-690.0,1
36137.0,-15316.0,2820.0,-1608.0,-622.0,792.0,-811.0,1
36159.0,-15612.0,3312.0,-1748.0,-2176.0,2129.0,-1522.0,1
36181.0,-15636.0,3000.0,-1556.0,-2063.0,3629.0,-1486.0,1
36203.0,-16052.0,2152.0,-1644.0,-2261.0,4812.0,-1452.0,1
36225.0,-16380.0,1916.0,-2108.0,-2609.0,5950.0,-1273.0,1
36247.0,-16200.0,1996.0,-2584.0,-2712.0,6561.0,-1248.0,1
36269.0,-16944.0,1636.0,-2576.0,-2855.0,7365.0,-1670.0,1
36291.0,-16140.0,1864.0,-2324.0,-1675.0,8758.0,-2101.0,1
36313.0,-25136.0,2408.0,4592.0,-1542.0,-3.0,-2224.0,1
36335.0,-16392.0,1344.0,-5436.0,15060.0,264.0,-995.0,1
36357.0,-23244.0,5764.0,132.0,15884.0,8504.0,355.0,1
36379.0,-22688.0,6944.0,148.0,14655.0,12959.0,2231.0,1
36401.0,-18536.0,5496.0,5832.0,9744.0,11015.0,414.0,1
36423.0,-15980.0,7160.0,17072.0,10986.0,4593.0,-250.0,1
36445.0,-11764.0,5648.0,15372.0,7645.0,-4001.0,2243.0,1
36467.0,-10180.0,4744.0,15220.0,4810.0,-10115.0,5063.0,1
36489.0,-14124.0,5412.0,7260.0,1993.0,-15477.0,6189.0,1
36511.0,-18780.0,524.0,348.0,-5694.0,-19385.0,5790.0,1
36533.0,-20504.0,968.0,-12156.0,-6937.0,-18149.0,6432.0,1
36555.0,-21240.0,1132.0,-15620.0,-13342.0,-15843.0,4151.0,1
36577.0,-19508.0,-532.0,-18240.0,-11798.0,-11123.0,-371.0,1
36599.0,-15972.0,664.0,-17952.0,-2855.0,-5566.0,924.0,1
36621.0,-16468.0,780.0,-13248.0,4804.0,-1876.0,-487.0,1
36643.0,-15824.0,-60.0,-8212.0,4796.0,832.0,-1141.0,1
36665.0,-16760.0,560.0,-5408.0,4018.0,1394.0,-395.0,1
36687.0,-16320.0,6072.0,-9028.0,-3232.0,1149.0,3252.0,1
36709.0,-15248.0,-1376.0,1096.0,-4182.0,-2935.0,-3753.0,1
36731.0,-15000.0,-5184.0,1208.0,5105.0,-3112.0,-5020.0,1
36753.0,-13952.0,4460.0,1220.0,3364.0,-2155.0,-1737.0,1
36775.0,-15992.0,6240.0,-408.0,-3972.0,-1661.0,2379.0,1
36797.0,-18388.0,8292.0,-4624.0,-7841.0,-1428.0,5206.0,1
36819.0,-17936.0,6224.0,1796.0,-10570.0,-4532.0,505.0,1
36841.0,-16048.0,-1996.0,3816.0,-762.0,-6000.0,-4676.0,1
36863.0,-14084.0,2284.0,5796.0,11858.0,-3844.0,-870.0,1
36885.0,-15256.0,4888.0,872.0,8616.0,-1966.0,3672.0,1
36907.0,-15980.0,3316.0,-80.0,-2497.0,-1072.0,5637.0,1
36929.0,-16484.0,8024.0,2832.0,-13561.0,-1451.0,5361.0,1
36951.0,-15324.0,-2524.0,3904.0,-10796.0,-5786.0,-3505.0,1
36973.0,-13872.0,976.0,2020.0,-87.0,-7747.0,-914.0,1
36995.0,-14124.0,1100.0,2168.0,3129.0,-8754.0,-1080.0,1
37017.0,-14412.0,3924.0,-708.0,-691.0,-6428.0,-177.0,1
37039.0,-15340.0,4360.0,-6880.0,-3465.0,-2816.0,820.0,1
37061.0,-14876.0,1780.0,-10192.0,-4971.0,1712.0,766.0,1
37083.0,-13404.0,-152.0,-11808.0,-5799.0,6670.0,-569.0,1
37105.0,-12060.0,-3840.0,-10200.0,-13259.0,10879.0,-4343.0,1
37127.0,-32768.0,15288.0,-30956.0,-11393.0,16381.0,5471.0,1
37149.0,-600.0,7496.0,32767.0,5197.0,-5657.0,-2660.0,1
37171.0,-22272.0,7504.0,-25884.0,13919.0,11631.0,2376.0,1
37193.0,-27876.0,-3184.0,8908.0,395.0,-2593.0,1454.0,1
37215.0,-14600.0,964.0,-228.0,696.0,4521.0,85.0,1
37237.0,-16584.0,1028.0,24.0,652.0,3485.0,3526.0,1
37259.0,-16980.0,3188.0,236.0,3389.0,2832.0,3007.0,1
37281.0,-16260.0,3224.0,-724.0,3511.0,1886.0,1980.0,1
37303.0,-16412.0,3576.0,-636.0,3855.0,1409.0,1153.0,1
37325.0,-16220.0,3424.0,-628.0,3783.0,1508.0,948.0,1
37347.0,-15780.0,4224.0,-520.0,3332.0,1739.0,614.0,1
37369.0,-16148.0,3412.0,-332.0,2185.0,1407.0,-301.0,1
37391.0,-15780.0,3776.0,-432.0,1703.0,1612.0,-451.0,1
37413.0,-15800.0,3896.0,176.0,1203.0,2002.0,-673.0,1
37435.0,-15280.0,3700.0,-672.0,638.0,2951.0,-907.0,1
37457.0,-15824.0,3396.0,-1148.0,-103.0,3394.0,-802.0,1
37479.0,-15088.0,3972.0,-1032.0,-642.0,4083.0,-1195.0,1
37501.0,-15872.0,3936.0,-1040.0,-1552.0,4554.0,-1865.0,1
37523.0,-16176.0,2988.0,-1936.0,-2173.0,4768.0,-1902.0,1
37545.0,-16180.0,2764.0,-2452.0,-2482.0,5135.0,-1429.0,1
37567.0,-15700.0,2624.0,-2388.0,-3833.0,5642.0,-1160.0,1
37589.0,-15988.0,3088.0,-2308.0,-5457.0,7144.0,-1256.0,1
37611.0,-16468.0,2564.0,-2140.0,-7043.0,8946.0,-2274.0,1
37633.0,-20996.0,1512.0,1596.0,-4870.0,5938.0,-3046.0,1
37655.0,-19820.0,-912.0,200.0,743.0,1393.0,-2899.0,1
37677.0,-20216.0,5376.0,-1768.0,8319.0,6597.0,619.0,1
37699.0,-20300.0,4884.0,-148.0,9118.0,10125.0,2207.0,1
37721.0,-19972.0,6392.0,3564.0,3736.0,11030.0,1209.0,1
37743.0,-16596.0,6360.0,11176.0,4857.0,6115.0,490.0,1
37765.0,-10624.0,2384.0,18548.0,1010.0,-2380.0,-344.0,1
37787.0,-12676.0,888.0,16028.0,4293.0,-10729.0,338.0,1
37809.0,-15248.0,3992.0,8568.0,9611.0,-16206.0,1900.0,1
37831.0,-19240.0,5560.0,1464.0,3346.0,-17027.0,2330.0,1
37853.0,-21760.0,4856.0,-15240.0,1352.0,-14032.0,3488.0,1
37875.0,-20144.0,6540.0,-20952.0,-11562.0,-6939.0,3274.0,1
37897.0,-14096.0,3536.0,-16008.0,-21740.0,-819.0,292.0,1
37919.0,-15824.0,1416.0,-12236.0,-14093.0,-923.0,-923.0,1
37941.0,-15468.0,-48.0,-8200.0,-1828.0,-5008.0,-1852.0,1
37963.0,-13896.0,-904.0,-556.0,8771.0,-7204.0,-2118.0,1
37985.0,-15600.0,512.0,-1300.0,13649.0,-7416.0,-1093.0,1
38007.0,-17192.0,2992.0,-2328.0,9865.0,-6423.0,2519.0,1
38029.0,-16684.0,7336.0,-996.0,5597.0,-6189.0,6104.0,1
38051.0,-16152.0,1064.0,4016.0,1075.0,-5872.0,417.0,1
38073.0,-15092.0,-28.0,1096.0,1607.0,-3836.0,185.0,1
38095.0,-15120.0,2552.0,-776.0,-1265.0,-2391.0,2621.0,1
38117.0,-14300.0,3308.0,1296.0,-9621.0,-2176.0,3002.0,1
38139.0,-14468.0,2384.0,2664.0,-10890.0,-4951.0,683.0,1
38161.0,-15804.0,2984.0,-96.0,-6830.0,-5849.0,-404.0,1
38183.0,-16016.0,3652.0,-4624.0,-6046.0,-3537.0,-229.0,1
38205.0,-15852.0,2928.0,-7124.0,-5673.0,192.0,1629.0,1
38227.0,-12680.0,-2668.0,-9652.0,-9209.0,5004.0,-1721.0,1
38249.0,-13248.0,-356.0,-9056.0,-9347.0,8578.0,-2585.0,1
38271.0,-13688.0,1052.0,5404.0,-2781.0,2520.0,-2556.0,1
38293.0,-14896.0,3008.0,17368.0,1640.0,491.0,-3521.0,1
38315.0,-11456.0,1208.0,6820.0,-2249.0,4890.0,-1572.0,1
38337.0,-32768.0,332.0,-32768.0,8136.0,18326.0,3781.0,1
38359.0,-15820.0,180.0,8420.0,-7580.0,-866.0,2050.0,1
38381.0,-16332.0,-892.0,-688.0,133.0,8210.0,763.0,1
38403.0,-16744.0,2140.0,-504.0,-955.0,7379.0,2849.0,1
38425.0,-15680.0,5080.0,-1612.0,-296.0,6616.0,1766.0,1
38447.0,-15344.0,5672.0,-2976.0,-1900.0,5853.0,-27.0,1
38469.0,-17272.0,2124.0,-2432.0,124.0,3510.0,-231.0,1
38491.0,-17324.0,2836.0,-2184.0,1402.0,1332.0,217.0,1
38513.0,-16488.0,3488.0,-2796.0,918.0,477.0,86.0,1
38535.0,-16952.0,4036.0,-2240.0,1430.0,-1643.0,-370.0,1
38557.0,-18472.0,4140.0,-408.0,5631.0,-5084.0,119.0,1
38579.0,-13976.0,3124.0,-2252.0,4643.0,-1569.0,-188.0,1
38601.0,-15532.0,3032.0,-2132.0,783.0,863.0,-946.0,1
38623.0,-14776.0,3020.0,-2024.0,635.0,2408.0,-713.0,1
38645.0,-15808.0,3024.0,-2552.0,-2622.0,2709.0,-1695.0,1
38667.0,-16112.0,2844.0,-2692.0,-2482.0,3499.0,-1896.0,1
38689.0,-16904.0,1788.0,-2284.0,-2351.0,3751.0,-1550.0,1
38711.0,-16392.0,1852.0,-2504.0,-1374.0,4089.0,-970.0,1
38733.0,-15996.0,2228.0,-2644.0,-1222.0,4922.0,-896.0,1
38755.0,-16592.0,1228.0,-2476.0,-1530.0,6982.0,-1087.0,1
38777.0,-15972.0,1644.0,-2064.0,-338.0,9758.0,-1308.0,1
38799.0,-24252.0,1640.0,2716.0,-7514.0,5910.0,-2816.0,1
38821.0,-27056.0,6632.0,3616.0,15793.0,-1364.0,1700.0,1
38843.0,-21028.0,4376.0,-1460.0,23738.0,9439.0,2259.0,1
38865.0,-21416.0,7620.0,1084.0,16673.0,12139.0,948.0,1
38887.0,-17552.0,5848.0,2448.0,6589.0,13151.0,-1759.0,1
38909.0,-11712.0,4444.0,14060.0,3639.0,5759.0,-884.0,1
38931.0,-7320.0,2112.0,14740.0,5541.0,-4836.0,-907.0,1
38953.0,-10188.0,1576.0,11960.0,7431.0,-12749.0,940.0,1
38975.0,-13548.0,4112.0,5744.0,5666.0,-17618.0,3611.0,1
38997.0,-19736.0,3816.0,-2024.0,-948.0,-20395.0,6210.0,1
39019.0,-20224.0,1704.0,-10264.0,-11245.0,-17677.0,6145.0,1
39041.0,-20616.0,2604.0,-16404.0,-16644.0,-12562.0,3021.0,1
39063.0,-18744.0,2028.0,-14828.0,-19515.0,-7704.0,-1584.0,1
39085.0,-16232.0,-40.0,-6936.0,-13574.0,-6985.0,-3475.0,1
39107.0,-14596.0,1464.0,-1712.0,-6346.0,-9399.0,-1201.0,1
39129.0,-16724.0,2404.0,-4728.0,1667.0,-10978.0,667.0,1
39151.0,-17564.0,5116.0,-12944.0,3590.0,-8615.0,2885.0,1
39173.0,-16588.0,5316.0,-9100.0,2207.0,-6517.0,1021.0,1
39195.0,-16332.0,-668.0,-8640.0,5001.0,-3843.0,-2785.0,1
39217.0,-16408.0,-348.0,-5208.0,10154.0,426.0,-943.0,1
39239.0,-15796.0,4408.0,2288.0,7860.0,2976.0,1948.0,1
39261.0,-15160.0,5692.0,7436.0,3225.0,600.0,3959.0,1
39283.0,-14996.0,5136.0,10904.0,-4475.0,-6076.0,2870.0,1
39305.0,-14112.0,932.0,12240.0,-3862.0,-13789.0,-1499.0,1
39327.0,-15968.0,1580.0,4872.0,3445.0,-15632.0,544.0,1
39349.0,-17272.0,2228.0,-6408.0,4156.0,-12052.0,3594.0,1
39371.0,-16132.0,2392.0,-10516.0,1944.0,-6306.0,5621.0,1
39393.0,-15404.0,2492.0,-13336.0,-6504.0,-1075.0,2310.0,1
39415.0,-14520.0,-2812.0,-6716.0,-5710.0,1766.0,-2356.0,1
39437.0,-14548.0,-80.0,-4764.0,770.0,4382.0,-1071.0,1
39459.0,-14916.0,-1816.0,-5392.0,-2486.0,5732.0,-1812.0,1
39481.0,-12652.0,576.0,5824.0,-6872.0,4702.0,110.0,1
39503.0,-17344.0,5564.0,15088.0,-10867.0,4027.0,-976.0,1
39525.0,-15800.0,-640.0,-128.0,-6371.0,6902.0,-3527.0,1
39547.0,-31904.0,17656.0,-15116.0,-4023.0,9771.0,8224.0,1
39569.0,-17656.0,3004.0,5712.0,-8791.0,2390.0,-1199.0,1
39591.0,-12988.0,1368.0,-660.0,-4235.0,7654.0,-1428.0,1
39613.0,-18624.0,-1272.0,-1900.0,-4181.0,7103.0,10.0,1
39635.0,-17360.0,-80.0,-992.0,-1304.0,6945.0,1894.0,1
39657.0,-16660.0,3440.0,-892.0,-466.0,5870.0,2256.0,1
39679.0,-16412.0,3832.0,-1748.0,290.0,4751.0,911.0,1
39701.0,-17116.0,2180.0,-1372.0,4965.0,724.0,201.0,1
39723.0,-15860.0,3228.0,-1040.0,3383.0,706.0,154.0,1
39745.0,-16364.0,3168.0,-1464.0,1845.0,917.0,-107.0,1
39767.0,-16084.0,3344.0,-1148.0,297.0,1062.0,-463.0,1
39789.0,-15212.0,3788.0,-1004.0,-943.0,2006.0,-1041.0,1
39811.0,-15200.0,3720.0,-1108.0,-1135.0,3114.0,-1189.0,1
39833.0,-15528.0,3672.0,-1376.0,-834.0,3610.0,-1066.0,1
39855.0,-16412.0,3080.0,-2012.0,-2395.0,3593.0,-1413.0,1
39877.0,-16056.0,2740.0,-1744.0,-3166.0,3878.0,-2105.0,1
39899.0,-16520.0,1728.0,-1864.0,-2040.0,4219.0,-1714.0,1
39921.0,-16444.0,1640.0,-1992.0,-1372.0,4523.0,-1026.0,1
39943.0,-16344.0,2268.0,-2660.0,-1373.0,4872.0,-748.0,1
39965.0,-16460.0,2484.0,-2732.0,-1908.0,5698.0,-1036.0,1
39987.0,-17316.0,3108.0,-1628.0,-1527.0,6408.0,-1957.0,1
40009.0,-25956.0,4192.0,8856.0,4940.0,-3410.0,-381.0,1
40031.0,-15412.0,-472.0,-1956.0,10951.0,-2763.0,-1409.0,1
40053.0,-19344.0,5040.0,-2152.0,10994.0,8551.0,-606.0,1
40075.0,-19944.0,4548.0,-288.0,6242.0,10090.0,-160.0,1
40097.0,-17628.0,1984.0,-3008.0,1970.0,10010.0,-275.0,1
40119.0,-14056.0,5492.0,10432.0,1838.0,5556.0,486.0,1
40141.0,-12016.0,1912.0,10424.0,-2667.0,-2044.0,-584.0,1
40163.0,-12896.0,1404.0,9312.0,1031.0,-8228.0,871.0,1
40185.0,-15780.0,3520.0,5076.0,3114.0,-11886.0,1471.0,1
40207.0,-18200.0,3696.0,2160.0,929.0,-14050.0,776.0,1
40229.0,-19120.0,4068.0,856.0,-1371.0,-15161.0,1470.0,1
40251.0,-18728.0,5772.0,-2964.0,-1202.0,-15087.0,2844.0,1
40273.0,-19336.0,3316.0,-4852.0,-5308.0,-15449.0,3063.0,1
40295.0,-17460.0,2352.0,-6628.0,-7128.0,-13007.0,3159.0,1
40317.0,-16112.0,3292.0,-2956.0,-7461.0,-11609.0,2303.0,1
40339.0,-17004.0,1072.0,-2992.0,-1321.0,-11794.0,1176.0,1
40361.0,-17412.0,2068.0,-2808.0,4306.0,-12345.0,2028.0,1
40383.0,-16984.0,3764.0,-2492.0,5892.0,-11552.0,2184.0,1
40405.0,-15692.0,3916.0,2160.0,5889.0,-10116.0,1504.0,1
40427.0,-14388.0,2300.0,1824.0,4760.0,-8882.0,2390.0,1
40449.0,-15284.0,3532.0,356.0,2214.0,-8121.0,1459.0,1
40471.0,-15528.0,3708.0,-2780.0,-82.0,-6056.0,1978.0,1
40493.0,-14788.0,3124.0,-7260.0,-2888.0,-1921.0,2353.0,1
40515.0,-13592.0,1876.0,-7928.0,-6025.0,3294.0,1543.0,1
40537.0,-12444.0,-212.0,-3104.0,-9143.0,6813.0,-700.0,1
40559.0,-13944.0,-660.0,-2388.0,-9108.0,8145.0,-3336.0,1
40581.0,-15300.0,-1868.0,-5648.0,-1033.0,4783.0,-1124.0,1
40603.0,-15688.0,468.0,3000.0,1376.0,1706.0,-2183.0,1
40625.0,-15624.0,2636.0,5380.0,6030.0,-130.0,-2495.0,1
40647.0,-16460.0,7056.0,16292.0,3431.0,72.0,-2303.0,1
40669.0,-13656.0,-700.0,48.0,-4343.0,5434.0,-4069.0,1
40691.0,-17400.0,6472.0,-11976.0,-4942.0,10870.0,3998.0,1
40713.0,-25264.0,-1704.0,-21108.0,2591.0,9933.0,-1116.0,1
40735.0,-19840.0,-8472.0,5184.0,-2546.0,703.0,-3726.0,1
40757.0,-16528.0,-1136.0,1752.0,1442.0,4736.0,1386.0,1
40779.0,-16084.0,2364.0,376.0,2321.0,6369.0,2247.0,1
40801.0,-15552.0,3292.0,-600.0,3159.0,6983.0,2875.0,1
40823.0,-15688.0,6000.0,-104.0,3454.0,5049.0,1224.0,1
40845.0,-15204.0,3828.0,-924.0,2078.0,3600.0,-438.0,1
40867.0,-17268.0,1616.0,-536.0,3225.0,4363.0,380.0,1
40889.0,-16388.0,3080.0,-524.0,1591.0,5124.0,1515.0,1
40911.0,-16352.0,3876.0,-2076.0,-261.0,4822.0,1041.0,1
40933.0,-16328.0,4288.0,-1700.0,-2444.0,4024.0,-247.0,1
40955.0,-15948.0,3192.0,-1836.0,-4144.0,4403.0,-647.0,1
40977.0,-16024.0,3220.0,-1776.0,-4138.0,4750.0,-528.0,1
40999.0,-16212.0,2912.0,-2192.0,-3787.0,3854.0,-654.0,1
41021.0,-16312.0,3516.0,-2876.0,-3181.0,2549.0,-657.0,1
41043.0,-16604.0,3280.0,-2436.0,-210.0,-453.0,-674.0,1
41065.0,-19120.0,3884.0,896.0,6489.0,-5241.0,234.0,1
41087.0,-14188.0,3216.0,-2296.0,6816.0,-3889.0,-378.0,1
41109.0,-15272.0,3068.0,-2272.0,4572.0,-2436.0,-663.0,1
41131.0,-15972.0,2720.0,-1900.0,1543.0,-1267.0,-547.0,1
41153.0,-16700.0,2760.0,-1868.0,3453.0,-2466.0,-436.0,1
41175.0,-15728.0,3820.0,-2188.0,1556.0,-2047.0,-687.0,1
41197.0,-16472.0,2984.0,-1392.0,-153.0,-1934.0,-805.0,1
41219.0,-16060.0,2656.0,-1508.0,-175.0,-1477.0,-632.0,1
41241.0,-15612.0,3568.0,-1204.0,-251.0,-822.0,-544.0,1
41263.0,-15608.0,3988.0,-1400.0,-1415.0,45.0,-1091.0,1
41285.0,-15792.0,3364.0,-1184.0,-2829.0,1169.0,-1722.0,1
41307.0,-15548.0,3076.0,-904.0,-3690.0,2674.0,-1821.0,1
41329.0,-16088.0,2228.0,-660.0,-4305.0,4090.0,-1724.0,1
41351.0,-16656.0,1556.0,-1616.0,-4962.0,4703.0,-1673.0,1
41373.0,-16584.0,2340.0,-1940.0,-3510.0,4553.0,-1438.0,1
41395.0,-16144.0,2512.0,-2300.0,-2305.0,4273.0,-1574.0,1
41417.0,-16060.0,2376.0,-2456.0,-1814.0,4623.0,-1686.0,1
41439.0,-16072.0,1908.0,-2508.0,-2666.0,5853.0,-2216.0,1
41461.0,-19484.0,2148.0,1164.0,-1691.0,2622.0,-2006.0,1
41483.0,-21232.0,2232.0,4276.0,1546.0,-3018.0,-1309.0,1
41505.0,-15784.0,4680.0,-3668.0,10660.0,5571.0,-774.0,1
41527.0,-21148.0,5100.0,-468.0,7318.0,8937.0,-696.0,1
41549.0,-20504.0,5048.0,-664.0,3330.0,9399.0,-1440.0,1
41571.0,-17336.0,4984.0,2408.0,1689.0,8015.0,-159.0,1
41593.0,-12524.0,8168.0,14304.0,-3018.0,1756.0,566.0,1
41615.0,-13756.0,3744.0,10920.0,-6148.0,-5062.0,629.0,1
41637.0,-13688.0,2464.0,8208.0,-1808.0,-9776.0,1478.0,1
41659.0,-14960.0,1980.0,4380.0,-30.0,-13755.0,1238.0,1
41681.0,-16328.0,2704.0,-1380.0,-1152.0,-15231.0,2094.0,1
41703.0,-17572.0,2968.0,-3464.0,-5506.0,-15814.0,2797.0,1
41725.0,-17892.0,2176.0,-3696.0,-6774.0,-15640.0,1656.0,1
41747.0,-18376.0,1708.0,-5108.0,-8980.0,-13398.0,736.0,1
41769.0,-17516.0,1856.0,-7144.0,-9608.0,-8426.0,51.0,1
41791.0,-19828.0,536.0,-7524.0,-8388.0,-7691.0,-923.0,1
41813.0,-18900.0,3828.0,-15020.0,-4773.0,-4713.0,2744.0,1
41835.0,-16748.0,3188.0,-3948.0,-4172.0,-8735.0,672.0,1
41857.0,-14100.0,-1608.0,-1296.0,1713.0,-6513.0,-2432.0,1
41879.0,-15500.0,-652.0,-488.0,6367.0,-5161.0,-527.0,1
41901.0,-16208.0,616.0,-3308.0,12427.0,-4682.0,439.0,1
41923.0,-16876.0,1436.0,-10012.0,7583.0,-3513.0,2051.0,1
41945.0,-14980.0,3608.0,-1556.0,3274.0,-2694.0,1749.0,1
41967.0,-14792.0,-912.0,3680.0,1564.0,-1431.0,-2298.0,1
41989.0,-13624.0,-376.0,524.0,3039.0,319.0,-1281.0,1
42011.0,-13456.0,732.0,-1048.0,4038.0,735.0,-496.0,1
42033.0,-14156.0,1052.0,3560.0,-1271.0,100.0,-720.0,1
42055.0,-17644.0,4124.0,6624.0,-3565.0,-2135.0,179.0,1
42077.0,-21040.0,10944.0,-4960.0,-3280.0,1988.0,3795.0,1
42099.0,-20128.0,7736.0,-3836.0,-6529.0,1124.0,-1422.0,1
42121.0,-15476.0,-568.0,3752.0,-6320.0,815.0,-3525.0,1
42143.0,-15480.0,-2352.0,3216.0,-1340.0,3212.0,-2053.0,1
42165.0,-15588.0,-1892.0,4152.0,1216.0,4274.0,191.0,1
42187.0,-16656.0,-200.0,292.0,2009.0,5800.0,1625.0,1
42209.0,-17296.0,4120.0,-120.0,189.0,4568.0,2210.0,1
42231.0,-15424.0,5320.0,636.0,-4387.0,2517.0,89.0,1
42253.0,-15260.0,5200.0,156.0,-4521.0,2409.0,-748.0,1
42275.0,-15904.0,3168.0,516.0,-2653.0,2437.0,-1141.0,1
42297.0,-16456.0,1668.0,388.0,-1594.0,2215.0,-850.0,1
42319.0,-16716.0,420.0,1008.0,-1132.0,1837.0,-348.0,1
42341.0,-16556.0,904.0,248.0,-714.0,1605.0,446.0,1
42363.0,-16324.0,2360.0,172.0,-1198.0,1910.0,550.0,1
42385.0,-16032.0,2856.0,248.0,-1237.0,2461.0,369.0,1
42407.0,-15736.0,3060.0,316.0,-891.0,3117.0,114.0,1
42429.0,-16072.0,2768.0,40.0,-190.0,3672.0,108.0,1
42451.0,-16188.0,2540.0,-672.0,-348.0,3628.0,-32.0,1
42473.0,-16256.0,2068.0,-832.0,-924.0,3173.0,0.0,1
42495.0,-16396.0,2136.0,-736.0,-1127.0,2539.0,-28.0,1
42517.0,-16324.0,2868.0,-948.0,-1260.0,2448.0,204.0,1
42539.0,-16404.0,2660.0,-880.0,-1246.0,1904.0,-162.0,1
42561.0,-16232.0,2212.0,-880.0,-1266.0,1478.0,-313.0,1
42583.0,-16016.0,1732.0,-1208.0,-1068.0,1218.0,-153.0,1
42605.0,-16368.0,1752.0,-1148.0,-353.0,1077.0,259.0,1
42627.0,-16372.0,2172.0,-1096.0,-660.0,1007.0,414.0,1
42649.0,-15628.0,2788.0,-1048.0,-834.0,1307.0,384.0,1
42671.0,-16160.0,2860.0,-1696.0,-1053.0,1526.0,308.0,1
42693.0,-15876.0,2908.0,-1524.0,-1323.0,1568.0,149.0,1
42715.0,-16072.0,1884.0,-1264.0,-1459.0,1792.0,346.0,1
42737.0,-16048.0,2412.0,-1496.0,-1037.0,1861.0,667.0,1
42759.0,-16064.0,2008.0,-1696.0,-1344.0,1941.0,784.0,1
42781.0,-15848.0,2844.0,-2252.0,-1073.0,1851.0,1020.0,1
42803.0,-16004.0,2576.0,-1848.0,-1146.0,1512.0,1100.0,1
42825.0,-16328.0,2164.0,-1832.0,-970.0,1524.0,1344.0,1
42847.0,-16508.0,2984.0,-1724.0,-877.0,1768.0,1467.0,1
42869.0,-16448.0,3504.0,-2556.0,-814.0,1489.0,971.0,1
42891.0,-16444.0,3200.0,-2544.0,-1211.0,952.0,349.0,1
42913.0,-16360.0,3264.0,-2112.0,-1139.0,640.0,-296.0,1
42935.0,-16352.0,3156.0,-2412.0,-516.0,403.0,-732.0,1
42957.0,-16240.0,3180.0,-2592.0,-30.0,-144.0,-1086.0,1
42979.0,-16012.0,3052.0,-2636.0,27.0,-745.0,-1510.0,1
43001.0,-14503.656015828177,2606.08219435847,-1136.9226459087508,3195.7574234562644,-636.7343044925501,734.3361034694859,1
43023.0,-15002.310781069487,3369.4785681828075,-491.2086800279732,-131.439196046983,957.9547435375001,1311.2662642129285,1
43045.0,-16264.728287250406,3283.5539976304703,-3688.2489887769866,-2791.6319026083333,1049.1791874147539,864.9358042912739,1
43067.0,-14069.573732716879,2095.854380768273,3063.7582598050135,-1921.219361900072,-822.7620276406514,-498.2295899749983,1
43089.0,-13840.943077976015,1875.2510753284885,3485.135745819013,58.48440350615588,-2550.866785112715,-604.7847869313724,1
43111.0,-14148.18563016411,3346.3295096305465,4490.376724877233,-180.41912130791295,-3662.0451269365267,-19.34554326020706,1
43133.0,-15296.169397302649,4448.153364569761,1451.8836096130003,-804.2949338797628,-4022.6152332580086,1535.153895481582,1
43155.0,-14226.67141461421,6744.814698294269,-594.7375693452668,-2035.7509737623175,-5388.217116233886,2123.9122872573935,1
43177.0,-14928.690592283063,2391.8136357665367,1152.1030257058444,-2179.2939898133723,-7284.788504410185,-1051.1463080658873,1
43199.0,-14389.779406257368,-493.6235299796832,3399.8280613726542,1001.744252130561,-7278.899819301926,-993.5025114053454,1
43221.0,-13032.286513410076,2375.9223656153863,-1079.3738208755724,1898.8225349812674,-4718.234741844271,2018.776485573148,1
43243.0,-12935.195956019472,874.1421701129209,-766.7838369726837,-2964.4305579962725,-2830.179812205952,3155.32082646931,1
43265.0,-12114.736661271105,-2553.9205608996367,-2286.5104454794287,-5107.986514143807,-1628.761664816728,786.6032253878014,1
43287.0,-11973.487785648547,-755.0466636517916,-1472.5932152188266,-7544.472114892687,772.2791587505383,-3021.6557871524838,1
43309.0,-11950.99847999853,-157.14438154823333,-3473.5284513343286,-8882.286884374915,4265.8639191953835,-4154.523875351616,1
43331.0,-10370.056820899545,209.36367665062923,-3663.622423325661,-9989.284435526615,7088.234114886563,-3542.1718526392638,1
43353.0,-21451.255533106734,312.57016242024235,-29489.774416385317,-11849.530098894991,19779.39530731065,3476.1502558839506,1
43375.0,-7103.296488709288,4969.485571333204,-6633.391632042791,7180.356711737214,-3427.6593139669344,1737.974946522384,1
43397.0,-25125.37368757925,16561.28118571292,22597.31382761598,5044.865010421194,-4531.556103603424,6407.9512159242295,1
43419.0,-14410.565313309573,6396.079507131821,-8036.70557241512,3660.409528150504,3243.630199050666,957.087147525241,1
43441.0,-13631.743344744718,374.1771531792846,1456.5089962915224,-1905.6733112559052,1311.2939355579879,85.00464396439446,1
43463.0,-14956.573651802393,730.8224120660631,-770.1707895564833,-3229.6940565081372,-237.10420757625707,-117.20487737449206,1
43485.0,-14387.480345822176,1717.918879393599,-1125.674576880988,-1049.8787548262715,2020.8863170013503,1845.1518632704785,1
43507.0,-17691.479524831215,611.042416588783,1021.6766695663171,2142.2570485773863,254.6482404814891,1521.4571651570056,1
43529.0,-15431.46236655746,2880.090550821336,-1259.304475894911,585.9307161783016,-836.0250437531037,443.1737160704907,1
43551.0,-14040.504995305719,4549.8341611912565,-1136.9878278242184,443.2697318699429,109.12637543088725,157.39740134236627,1
43573.0,-14917.908246872588,2602.923145131783,-556.2668790835282,-540.3509694613786,79.5584126514777,-1358.993379593545,1
43595.0,-14717.938249095903,2463.0318426506374,-778.0172997334611,729.5448198187044,-252.5494782775253,-1645.6662595099697,1
43617.0,-14706.509575745373,1553.6453777044583,-149.78081816914803,1164.9894352821907,335.51014150434855,-1356.3976710980683,1
43639.0,-14479.404388389252,2297.143670288961,-329.8109817325911,1940.824377047753,993.4712263180749,-476.4492921795136,1
43661.0,-14614.298995896932,2667.1633194698925,-633.0328823482557,846.2416941541511,1069.523021765533,-1060.5926953808387,1
43683.0,-14981.89593651877,2535.981145761931,-887.6360499467369,-780.3450391493951,543.190902305887,-1836.78246419347,1
43705.0,-14513.798678595385,1755.0934504528138,-153.4445178688584,136.67282873301065,1565.257332140721,-1333.089799406952,1
43727.0,-14310.194072945847,2008.3829405931012,25.414914459138373,-285.51657071394044,2729.379068219667,-1450.2174770367478,1
43749.0,-14986.97715584363,529.5872796992595,-84.38534010177025,-727.3618877926364,3868.4255639808252,-1056.4764763356127,1
43771.0,-16847.309836844914,-479.3910933203217,-689.2382170844953,-395.0159335324911,5040.7466357744925,-262.02473595700917,1
43793.0,-15309.487421032734,1568.9516494584811,-832.9878358776714,-889.0834801024105,5948.822350173608,373.2351528022715,1
43815.0,-15374.556620023195,2470.0584855830643,-266.53397082592136,-1258.4912586807793,6709.579598441682,498.4639591694301,1
43837.0,-18321.82214143366,1452.9835836118127,1200.9593775705753,-3894.7655495743197,5067.970558711407,-326.5470951321646,1
43859.0,-20073.731554903163,5045.929778326835,-2235.2429455115825,4845.759937638623,3787.873363237672,1143.1199561963656,1
43881.0,-16675.42401449791,6443.936442542643,1540.6412893756808,-559.6299136586453,4450.53083247889,145.84144235247325,1
43903.0,-12865.915881009178,5406.084063333039,10917.796854709544,-7230.215043204672,1924.6747662975413,1803.1947579543044,1
43925.0,-9430.372402249406,1617.3056762724516,13575.814301715556,-5728.238094236141,-4563.380688446391,-442.28182054630724,1
43947.0,-11040.045187637987,1742.9025468989396,10248.879988861834,-3858.9796680738314,-10519.251860887061,-1037.4814016014307,1
43969.0,-13615.652701095885,2251.610368468701,3293.372952007528,-4312.093751823145,-12237.349733068117,-1290.8752933517349,1
43991.0,-15074.739399657772,2411.108574537361,-2722.1413048784484,-5013.05122144354,-9470.104366603115,-222.3707021220975,1
44013.0,-18295.92625732017,-917.6865981835473,-13619.300935418138,5240.4220748672715,-6281.392449432312,645.0841729867626,1
44035.0,-14648.8082551234,3444.178379551163,-15835.993406781423,-4669.987266841242,-1826.7412878291236,1258.1805078074667,1
44057.0,-15011.67054123023,3868.6250893516085,-8509.549506245381,-6502.122304002427,-2244.602761526512,337.34134786142164,1
44079.0,-12411.429930606038,-1879.6904909474974,-3719.7292230918224,-1954.8492300694288,-602.3147122574582,-2735.209923508602,1
44101.0,-14752.60542178013,338.2582795409369,976.6499924297665,3422.6590166878345,-123.65045069170519,-840.5228522526609,1
44123.0,-15842.854524077906,332.0443333364996,-1072.2606206130504,11882.296155451455,-1962.2214772920972,-1451.6208665611412,1
44145.0,-15840.351348384296,4138.550773371605,1974.6635188038808,8762.478683844136,-2806.982257745199,1106.3173310384118,1
44167.0,-13964.611926437483,3184.4887712157742,2443.1841409923554,4559.395904581703,-3759.6473003218175,1407.5921450811045,1
44189.0,-13949.01170617455,5841.439714877209,1695.2497207288504,2709.3386294185643,-4171.847024443454,3832.737166448436,1
44211.0,-14167.189017488652,4429.1838108783495,1049.630297301762,-1990.3011763381835,-4416.146215015165,194.6530502654667,1
44233.0,-15744.5760902028,-2456.8195705310077,1553.1635493019908,1240.0620083953522,-4875.329560820364,-3886.121589950186,1
44255.0,-14626.752013501446,-1055.0334993242782,10274.02212661943,7982.380766671336,-4219.426019787321,-1823.5534438068614,1
44277.0,-9850.098721091532,2851.9249236378864,13298.017539768834,5423.230540435147,-2993.3546756087667,-495.9791626976283,1
44299.0,-21034.319825827875,958.9880401698581,-9581.76303178227,-3008.866366745909,-4660.4129247870205,4897.676790270247,1
44321.0,-16686.105473158335,13422.260368387615,-1428.0443123453047,-12120.488534574646,-7752.6684861131835,9322.208162887588,1
44343.0,-13517.565568608488,-7673.828350402238,356.22603612147157,-5040.5011172333325,-10840.600494704231,-6308.527467817605,1
44365.0,-13541.444323402058,661.0273877531251,-2545.6277018026417,4503.5082051334175,-6364.420216907141,121.09440613801743,1
44387.0,-11577.81781097332,1226.5236021995643,-3142.2806207625445,6409.122710246629,-1353.6112256307656,-903.9892896965134,1
44409.0,-12049.032396862636,1895.5145652646097,-3135.741932350129,3630.073878335496,3728.103333166817,2381.6296072742284,1
44431.0,-13283.954283727218,5487.770232658065,-715.7869998178088,-6729.128463821954,5597.8065952447405,1548.2774132123852,1
44453.0,-17400.15793623785,2471.7876544486007,-2988.098247018322,-10091.454536418023,4056.4988518580067,-819.0981473334668,1
44475.0,-12611.793211673927,986.5792275805502,4666.740093461741,-5877.318564879982,1690.2819593856025,-1051.2685812153468,1
44497.0,-14381.019596819382,884.4159385124943,2461.0530475685105,-3785.0653866184193,-536.4336150530402,-523.4278789626104,1
44519.0,-14024.72118701063,2663.38667029426,2681.131559560984,-2301.3691971519925,-980.9261207213912,1871.0643865978611,1
44541.0,-13276.294213073423,6565.374246591972,2750.2152123183414,265.7693423060705,-357.51643239316957,3260.481267131639,1
44563.0,-13656.13789298338,2127.84946807587,388.8645406070359,-578.9500225013534,364.9393477592928,-8.616725059527061,1
44585.0,-12590.717439716054,1217.8189672988276,1491.8347469329378,-168.77682489457817,608.6880173495342,-1792.816042411648,1
44607.0,-10697.56745250378,-1054.622181323832,979.7756245068407,-2247.047681667988,2065.7862283568015,-3707.2189210137058,1
44629.0,-12552.355176336368,-1730.6594742907507,-2446.9939557523126,-790.2905040011411,3905.219054727703,-2941.5919599429917,1
44651.0,-15112.397475983078,3723.702031547152,-15857.687633864149,2.1539517780216,10416.322521979158,-306.6134316298117,1
44673.0,-15724.095358251361,3778.880841871335,2857.851696568795,-8450.828288759567,677.7540513886275,1671.5008748609096,1
44695.0,-20053.058919891042,2668.0191699990446,6953.114003868237,8830.159891349325,-290.93704280736523,116.47887980451871,1
44717.0,-15305.188031723656,-2589.181304511076,-776.0164463861081,4941.486884995901,-841.1224785349947,-1217.2744225780957,1
44739.0,-15365.847377468617,2150.536568379437,2023.577525471896,4760.1267554413225,401.9581243277446,1128.4137244324259,1
44761.0,-15078.110579124419,2172.364856816887,-118.12869953244066,4931.210155799447,1573.824524224372,1559.3150784656934,1
44783.0,-15346.223793561334,1367.4460369122467,629.3291495595436,1744.9781900071457,2012.014843292872,1204.9079306797498,1
44805.0,-15241.751870131267,2530.206532043396,223.78065266159862,746.2148669536782,2689.6550545659093,1597.8230772596148,1
44827.0,-14227.6514227418,3361.1657925392333,107.80582777804509,135.48733819648737,3207.829460393682,1158.1810697358314,1
44849.0,-14596.305942107489,4031.991530307427,104.89984473675665,-1282.4328665742273,2992.9022314034064,724.7187519572584,1
44871.0,-14775.113149170065,4285.3057216845045,-1017.3053176153303,-2616.3410634896695,2549.278547722435,-230.92694375943134,1
44893.0,-14815.625444909509,3668.9893622444283,-631.2221374614905,-2905.4601438314567,1249.9695449520666,-1664.1850889250666,1
44915.0,-15535.732601180669,1456.586247314561,-265.2051654459404,-1406.2364092843738,-715.7934839465704,-2172.9923289825188,1
44937.0,-14502.852226104247,1395.8262842283345,211.53582331910152,-355.33884907536236,-1042.0366671584343,-1786.7669624177267,1
44959.0,-14136.971544103159,2090.8602838949882,564.2035053251991,106.79232375194391,-571.8979997819882,-1113.903814652713,1
44981.0,-14857.921085676275,2640.9893588639266,546.8402665924448,-644.455412320282,165.8330838444638,-897.7742510978825,1
45003.0,-14217.931298527701,2780.8028097493207,407.4008029725774,-1933.6276521744046,631.1450134867841,-1042.777618187504,1
45025.0,-14413.35628596357,2336.134372144909,-32.642152269951346,-2593.6673176304653,1026.0940425608767,-1634.779279793172,1
45047.0,-13923.256426454995,2119.0319173890557,287.65572911634763,-1649.1200465572467,2722.030139444351,-1120.583674524445,1
45069.0,-14361.281928682847,1636.0375821871867,291.30003554553826,-2344.1729093638874,4365.254052443927,-1318.0667113167897,1
45091.0,-15973.33595324022,258.53976407882124,239.07354416035002,-3169.8384380113375,6690.093030233171,-1294.4273159953502,1
45113.0,-16337.01125028234,1409.3281668725524,366.2485193159006,-2821.5119619209477,9522.901670332254,-790.4730042431831,1
45135.0,-17501.504095062766,3660.6282047672817,3826.310337296878,256.14030426430804,9933.354027582947,503.9722544660142,1
45157.0,-16914.98692274201,4205.025108805321,1961.317500203186,1822.3884029020433,7065.272073327034,463.00664441602595,1
45179.0,-14695.043169241631,5231.500864993792,13440.714745576008,-1235.1373525708284,1866.270466369848,1094.0942844276897,1
45201.0,-13217.602654686842,5198.948752288856,10236.149932202208,-8148.454992716859,-4273.850142559749,1068.6301649045286,1
45223.0,-13013.38615160765,1998.0467878171796,6366.178766358438,-6935.565140694713,-9402.87142069948,406.40007238993076,1
45245.0,-15257.369421757854,2440.104022780797,451.3865366920983,-2488.692792439139,-8937.803740229845,-766.4910814461226,1
45267.0,-17289.130139817273,1753.4260091042536,-2330.261242647709,2052.156887014671,-7260.183354244795,-913.659916094292,1
45289.0,-14997.125768274527,-647.2152811589388,-15580.734675527758,11632.817977463761,-6311.703688816115,1696.2716126656348,1
45311.0,-14473.411599575787,8665.973412122103,-5630.804810113222,4622.847447377627,-4599.965540026422,5246.779750859136,1
45333.0,-13292.190516110768,-3083.816063694843,754.1755306844053,1662.2824380848338,-4022.0594699554454,-4091.999031319564,1
45355.0,-12855.163796909432,-3125.2568479162583,3176.0036577269257,6733.140922767323,-1653.6995954452943,-2412.7698159349966,1
45377.0,-13155.018669526944,3303.558004690034,1949.3892900564094,5589.371190445084,-149.373611274655,318.48419511717236,1
45399.0,-15109.101891597313,4595.575612502289,-5802.346509298158,-494.6446823897545,-915.9666470112835,2271.774758669645,1
45421.0,-13823.44691794617,6779.94594543819,-999.170987378481,-5381.177431861964,-2527.7667352551516,2114.5925819733275,1
45443.0,-14854.335328418141,-2728.445591790862,1034.6588686690263,-4676.184693276611,-4025.1189951430374,-5585.843328778336,1
45465.0,-13306.200293321148,907.8440212639135,296.7590370564882,535.8869222145137,-2124.3023617287226,-609.1461659300701,1
45487.0,-13736.988656374493,2503.0169298638543,-1371.3395591691785,409.5928551258134,-692.7954487087951,1074.70735760534,1
45509.0,-15264.540667923988,1131.3396007849944,-3006.016024905382,335.95341268040113,-237.88650242541786,2810.616224275885,1
45531.0,-14554.078467066267,4099.449514046603,-1096.5192015047933,-2390.531986880224,-374.24768027559054,1139.1054832710092,1
45553.0,-14444.53942981459,281.44390627786544,269.81415336260335,1100.572404073901,-1587.514522862758,-2208.7766454225603,1
45575.0,-13852.681636103805,1945.2013308350067,4329.90740110382,4939.549463887888,-1018.1800989405538,-260.6413019218352,1
